exp,idx,jatosID,cbcond,trial,stimID,cond,KP_zm,KP_conf,RT_zm,RT_conf,hmfc,rating16,sex_kp_mfor,age_kp,studresp,stud_jud,presented
EA_exp_3,1,28726,2,1,59,2,m,2,5186,2920,fa,4,f,20,NA,NA,NA
EA_exp_3,1,28726,2,2,154,1,m,2,3953,1080,hit,4,f,20,q,older,1
EA_exp_3,1,28726,2,3,17,2,m,3,2443,930,fa,5,f,20,NA,NA,NA
EA_exp_3,1,28726,2,4,24,2,m,4,1646,563,fa,6,f,20,NA,NA,NA
EA_exp_3,1,28726,2,5,47,2,m,4,1210,292,fa,6,f,20,NA,NA,NA
EA_exp_3,1,28726,2,6,144,1,z,2,2234,792,miss,3,f,20,None,NA,1
EA_exp_3,1,28726,2,7,82,2,m,3,1462,310,fa,5,f,20,NA,NA,NA
EA_exp_3,1,28726,2,8,31,2,m,4,1208,482,fa,6,f,20,NA,NA,NA
EA_exp_3,1,28726,2,9,2,2,z,2,1776,895,cr,3,f,20,NA,NA,NA
EA_exp_3,1,28726,2,10,123,1,m,4,1419,251,hit,6,f,20,q,older,1
EA_exp_3,1,28726,2,11,22,2,m,3,2127,292,fa,5,f,20,NA,NA,NA
EA_exp_3,1,28726,2,12,114,1,z,3,2214,215,miss,2,f,20,q,older,1
EA_exp_3,1,28726,2,13,28,2,z,2,3470,314,cr,3,f,20,NA,NA,NA
EA_exp_3,1,28726,2,14,91,2,z,4,1275,388,cr,1,f,20,NA,NA,NA
EA_exp_3,1,28726,2,15,175,1,m,4,1153,319,hit,6,f,20,q,older,1
EA_exp_3,1,28726,2,16,186,1,m,4,1748,229,hit,6,f,20,p,younger,1
EA_exp_3,1,28726,2,17,63,2,z,2,1340,639,cr,3,f,20,NA,NA,NA
EA_exp_3,1,28726,2,18,172,1,z,2,1912,992,miss,3,f,20,p,younger,1
EA_exp_3,1,28726,2,19,6,2,z,3,3817,950,cr,2,f,20,NA,NA,NA
EA_exp_3,1,28726,2,20,145,1,m,3,1391,193,hit,5,f,20,q,older,1
EA_exp_3,1,28726,2,21,193,1,m,4,1112,246,hit,6,f,20,q,older,1
EA_exp_3,1,28726,2,22,187,1,m,4,1183,325,hit,6,f,20,q,older,1
EA_exp_3,1,28726,2,23,189,1,m,4,1082,199,hit,6,f,20,q,older,1
EA_exp_3,1,28726,2,24,93,2,z,3,1967,280,cr,2,f,20,NA,NA,NA
EA_exp_3,1,28726,2,25,126,1,m,3,1150,137,hit,5,f,20,p,younger,1
EA_exp_3,1,28726,2,26,170,1,m,4,1023,243,hit,6,f,20,p,younger,1
EA_exp_3,1,28726,2,27,84,2,z,2,1528,276,cr,3,f,20,NA,NA,NA
EA_exp_3,1,28726,2,28,103,1,m,3,1258,144,hit,5,f,20,p,younger,1
EA_exp_3,1,28726,2,29,83,2,z,2,1101,263,cr,3,f,20,NA,NA,NA
EA_exp_3,1,28726,2,30,30,2,z,2,1405,223,cr,3,f,20,NA,NA,NA
EA_exp_3,1,28726,2,31,160,1,m,3,1814,229,hit,5,f,20,None,NA,1
EA_exp_3,1,28726,2,32,49,2,z,2,1677,160,cr,3,f,20,NA,NA,NA
EA_exp_3,1,28726,2,33,183,1,z,3,6699,211,miss,2,f,20,p,younger,1
EA_exp_3,1,28726,2,34,198,1,m,2,3593,656,hit,4,f,20,q,older,1
EA_exp_3,1,28726,2,35,88,2,z,4,1591,462,cr,1,f,20,NA,NA,NA
EA_exp_3,1,28726,2,36,110,1,m,4,1117,392,hit,6,f,20,q,older,1
EA_exp_3,1,28726,2,37,62,2,z,2,1371,715,cr,3,f,20,NA,NA,NA
EA_exp_3,1,28726,2,38,96,2,z,3,1952,552,cr,2,f,20,NA,NA,NA
EA_exp_3,1,28726,2,39,149,1,m,2,1508,494,hit,4,f,20,q,older,1
EA_exp_3,1,28726,2,40,26,2,m,2,2219,153,fa,4,f,20,NA,NA,NA
EA_exp_3,1,28726,2,41,164,1,m,2,901,265,hit,4,f,20,p,younger,1
EA_exp_3,1,28726,2,42,3,2,z,2,2431,1173,cr,3,f,20,NA,NA,NA
EA_exp_3,1,28726,2,43,176,1,m,3,2406,989,hit,5,f,20,p,younger,1
EA_exp_3,1,28726,2,44,173,1,z,3,1188,1262,miss,2,f,20,p,younger,1
EA_exp_3,1,28726,2,45,86,2,z,3,1358,446,cr,2,f,20,NA,NA,NA
EA_exp_3,1,28726,2,46,188,1,m,3,2654,74,hit,5,f,20,q,older,1
EA_exp_3,1,28726,2,47,50,2,z,3,1237,192,cr,2,f,20,NA,NA,NA
EA_exp_3,1,28726,2,48,199,1,m,3,2106,203,hit,5,f,20,p,younger,1
EA_exp_3,1,28726,2,49,131,1,z,2,2356,397,miss,3,f,20,p,younger,1
EA_exp_3,1,28726,2,50,184,1,m,3,2272,954,hit,5,f,20,p,younger,1
EA_exp_3,1,28726,2,51,8,2,z,3,2500,1655,cr,2,f,20,NA,NA,NA
EA_exp_3,1,28726,2,52,125,1,m,3,1394,148,hit,5,f,20,p,younger,1
EA_exp_3,1,28726,2,53,4,2,z,2,2828,628,cr,3,f,20,NA,NA,NA
EA_exp_3,1,28726,2,54,69,2,z,3,2190,443,cr,2,f,20,NA,NA,NA
EA_exp_3,1,28726,2,55,167,1,m,3,1563,324,hit,5,f,20,q,older,1
EA_exp_3,1,28726,2,56,45,2,m,2,3462,147,fa,4,f,20,NA,NA,NA
EA_exp_3,1,28726,2,57,120,1,m,3,2124,336,hit,5,f,20,p,younger,1
EA_exp_3,1,28726,2,58,191,1,z,2,1746,229,miss,3,f,20,q,older,1
EA_exp_3,1,28726,2,59,194,1,z,2,1053,236,miss,3,f,20,p,younger,1
EA_exp_3,1,28726,2,60,155,1,m,3,1603,154,hit,5,f,20,q,older,1
EA_exp_3,1,28726,2,61,75,2,z,2,1428,243,cr,3,f,20,NA,NA,NA
EA_exp_3,1,28726,2,62,150,1,m,3,1257,192,hit,5,f,20,p,younger,1
EA_exp_3,1,28726,2,63,70,2,z,3,1241,256,cr,2,f,20,NA,NA,NA
EA_exp_3,1,28726,2,64,107,1,m,3,1014,278,hit,5,f,20,q,older,1
EA_exp_3,1,28726,2,65,105,1,m,2,1435,297,hit,4,f,20,q,older,1
EA_exp_3,1,28726,2,66,15,2,z,2,1518,251,cr,3,f,20,NA,NA,NA
EA_exp_3,1,28726,2,67,196,1,m,3,1360,354,hit,5,f,20,q,older,1
EA_exp_3,1,28726,2,68,76,2,z,2,1622,284,cr,3,f,20,NA,NA,NA
EA_exp_3,1,28726,2,69,33,2,z,3,1937,283,cr,2,f,20,NA,NA,NA
EA_exp_3,1,28726,2,70,117,1,m,2,6334,406,hit,4,f,20,p,younger,1
EA_exp_3,1,28726,2,71,104,1,m,4,1415,406,hit,6,f,20,p,younger,1
EA_exp_3,1,28726,2,72,79,2,z,2,2070,923,cr,3,f,20,NA,NA,NA
EA_exp_3,1,28726,2,73,139,1,m,4,1542,336,hit,6,f,20,p,younger,1
EA_exp_3,1,28726,2,74,108,1,z,3,3589,345,miss,2,f,20,q,older,1
EA_exp_3,1,28726,2,75,21,2,z,3,2253,826,cr,2,f,20,NA,NA,NA
EA_exp_3,1,28726,2,76,124,1,z,3,1372,234,miss,2,f,20,p,younger,1
EA_exp_3,1,28726,2,77,7,2,z,3,1490,238,cr,2,f,20,NA,NA,NA
EA_exp_3,1,28726,2,78,41,2,z,2,804,206,cr,3,f,20,NA,NA,NA
EA_exp_3,1,28726,2,79,19,2,z,2,1470,212,cr,3,f,20,NA,NA,NA
EA_exp_3,1,28726,2,80,39,2,z,2,1070,201,cr,3,f,20,NA,NA,NA
EA_exp_3,1,28726,2,81,133,1,z,2,1056,240,miss,3,f,20,p,younger,1
EA_exp_3,1,28726,2,82,156,1,m,4,1254,1486,hit,6,f,20,p,younger,1
EA_exp_3,1,28726,2,83,106,1,z,3,2304,285,miss,2,f,20,q,older,1
EA_exp_3,1,28726,2,84,166,1,z,2,1232,186,miss,3,f,20,q,older,1
EA_exp_3,1,28726,2,85,109,1,m,1,2497,644,hit,4,f,20,p,younger,1
EA_exp_3,1,28726,2,86,27,2,m,1,1786,171,fa,4,f,20,NA,NA,NA
EA_exp_3,1,28726,2,87,158,1,m,3,1396,293,hit,5,f,20,q,older,1
EA_exp_3,1,28726,2,88,65,2,z,3,1482,552,cr,2,f,20,NA,NA,NA
EA_exp_3,1,28726,2,89,121,1,m,2,1986,409,hit,4,f,20,p,younger,1
EA_exp_3,1,28726,2,90,182,1,m,2,1384,138,hit,4,f,20,p,younger,1
EA_exp_3,1,28726,2,91,159,1,z,2,2278,913,miss,3,f,20,p,younger,1
EA_exp_3,1,28726,2,92,118,1,z,2,1212,244,miss,3,f,20,None,NA,1
EA_exp_3,1,28726,2,93,174,1,m,1,2508,158,hit,4,f,20,q,older,1
EA_exp_3,1,28726,2,94,73,2,z,2,2186,185,cr,3,f,20,NA,NA,NA
EA_exp_3,1,28726,2,95,12,2,z,1,1537,445,cr,3,f,20,NA,NA,NA
EA_exp_3,1,28726,2,96,168,1,m,2,4893,877,hit,4,f,20,p,younger,1
EA_exp_3,1,28726,2,97,80,2,z,3,1641,385,cr,2,f,20,NA,NA,NA
EA_exp_3,1,28726,2,98,78,2,z,2,1216,250,cr,3,f,20,NA,NA,NA
EA_exp_3,1,28726,2,99,152,1,z,3,2417,292,miss,2,f,20,p,younger,1
EA_exp_3,1,28726,2,100,55,2,z,3,1482,295,cr,2,f,20,NA,NA,NA
EA_exp_3,1,28726,2,101,60,2,z,3,990,269,cr,2,f,20,NA,NA,NA
EA_exp_3,1,28726,2,102,112,1,z,3,818,252,miss,2,f,20,p,younger,1
EA_exp_3,1,28726,2,103,40,2,z,2,1232,201,cr,3,f,20,NA,NA,NA
EA_exp_3,1,28726,2,104,53,2,z,2,896,214,cr,3,f,20,NA,NA,NA
EA_exp_3,1,28726,2,105,85,2,z,3,1420,253,cr,2,f,20,NA,NA,NA
EA_exp_3,1,28726,2,106,13,2,z,2,834,203,cr,3,f,20,NA,NA,NA
EA_exp_3,1,28726,2,107,71,2,m,1,1845,545,fa,4,f,20,NA,NA,NA
EA_exp_3,1,28726,2,108,16,2,z,2,2506,1167,cr,3,f,20,NA,NA,NA
EA_exp_3,1,28726,2,109,23,2,z,2,2270,204,cr,3,f,20,NA,NA,NA
EA_exp_3,1,28726,2,110,147,1,z,3,2854,283,miss,2,f,20,q,older,1
EA_exp_3,1,28726,2,111,190,1,z,1,1791,3919,miss,3,f,20,q,older,1
EA_exp_3,1,28726,2,112,43,2,m,1,4050,323,fa,4,f,20,NA,NA,NA
EA_exp_3,1,28726,2,113,100,2,z,3,2265,2771,cr,2,f,20,NA,NA,NA
EA_exp_3,1,28726,2,114,179,1,m,2,1539,349,hit,4,f,20,q,older,1
EA_exp_3,1,28726,2,115,153,1,z,2,1279,469,miss,3,f,20,q,older,1
EA_exp_3,1,28726,2,116,77,2,z,3,1649,360,cr,2,f,20,NA,NA,NA
EA_exp_3,1,28726,2,117,130,1,m,4,3548,818,hit,6,f,20,q,older,1
EA_exp_3,1,28726,2,118,10,2,z,2,3252,2454,cr,3,f,20,NA,NA,NA
EA_exp_3,1,28726,2,119,171,1,z,2,3381,289,miss,3,f,20,q,older,1
EA_exp_3,1,28726,2,120,66,2,z,2,885,203,cr,3,f,20,NA,NA,NA
EA_exp_3,1,28726,2,121,101,1,m,2,1909,223,hit,4,f,20,q,older,1
EA_exp_3,1,28726,2,122,36,2,z,2,1108,227,cr,3,f,20,NA,NA,NA
EA_exp_3,1,28726,2,123,44,2,z,3,1368,220,cr,2,f,20,NA,NA,NA
EA_exp_3,1,28726,2,124,116,1,m,2,2469,840,hit,4,f,20,q,older,1
EA_exp_3,1,28726,2,125,132,1,z,3,1143,305,miss,2,f,20,p,younger,1
EA_exp_3,1,28726,2,126,143,1,m,2,1942,287,hit,4,f,20,q,older,1
EA_exp_3,1,28726,2,127,148,1,z,2,2053,1002,miss,3,f,20,q,older,1
EA_exp_3,1,28726,2,128,178,1,m,2,1650,1528,hit,4,f,20,q,older,1
EA_exp_3,1,28726,2,129,20,2,z,3,2507,733,cr,2,f,20,NA,NA,NA
EA_exp_3,1,28726,2,130,180,1,z,2,10144,1114,miss,3,f,20,p,younger,1
EA_exp_3,1,28726,2,131,64,2,z,2,1888,218,cr,3,f,20,NA,NA,NA
EA_exp_3,1,28726,2,132,87,2,m,2,1890,238,fa,4,f,20,NA,NA,NA
EA_exp_3,1,28726,2,133,115,1,z,2,2389,1069,miss,3,f,20,q,older,1
EA_exp_3,1,28726,2,134,169,1,m,2,2110,1044,hit,4,f,20,p,younger,1
EA_exp_3,1,28726,2,135,25,2,z,3,1017,378,cr,2,f,20,NA,NA,NA
EA_exp_3,1,28726,2,136,136,1,z,3,1081,233,miss,2,f,20,q,older,1
EA_exp_3,1,28726,2,137,42,2,z,3,832,216,cr,2,f,20,NA,NA,NA
EA_exp_3,1,28726,2,138,181,1,m,2,1746,609,hit,4,f,20,p,younger,1
EA_exp_3,1,28726,2,139,111,1,z,2,1401,1114,miss,3,f,20,q,older,1
EA_exp_3,1,28726,2,140,68,2,z,3,1792,1181,cr,2,f,20,NA,NA,NA
EA_exp_3,1,28726,2,141,58,2,z,3,1038,319,cr,2,f,20,NA,NA,NA
EA_exp_3,1,28726,2,142,138,1,z,3,1985,282,miss,2,f,20,p,younger,1
EA_exp_3,1,28726,2,143,146,1,z,3,1581,248,miss,2,f,20,q,older,1
EA_exp_3,1,28726,2,144,72,2,z,3,1102,219,cr,2,f,20,NA,NA,NA
EA_exp_3,1,28726,2,145,1,2,z,2,1683,168,cr,3,f,20,NA,NA,NA
EA_exp_3,1,28726,2,146,74,2,z,2,946,195,cr,3,f,20,NA,NA,NA
EA_exp_3,1,28726,2,147,61,2,z,2,1037,188,cr,3,f,20,NA,NA,NA
EA_exp_3,1,28726,2,148,127,1,z,3,1143,271,miss,2,f,20,q,older,1
EA_exp_3,1,28726,2,149,34,2,z,3,2997,1411,cr,2,f,20,NA,NA,NA
EA_exp_3,1,28726,2,150,162,1,z,3,984,221,miss,2,f,20,q,older,1
EA_exp_3,1,28726,2,151,177,1,z,3,913,231,miss,2,f,20,q,older,1
EA_exp_3,1,28726,2,152,56,2,z,3,1087,301,cr,2,f,20,NA,NA,NA
EA_exp_3,1,28726,2,153,197,1,m,2,1954,154,hit,4,f,20,q,older,1
EA_exp_3,1,28726,2,154,81,2,z,3,1557,207,cr,2,f,20,NA,NA,NA
EA_exp_3,1,28726,2,155,67,2,z,3,825,191,cr,2,f,20,NA,NA,NA
EA_exp_3,1,28726,2,156,161,1,m,1,1561,129,hit,4,f,20,q,older,1
EA_exp_3,1,28726,2,157,46,2,z,3,860,212,cr,2,f,20,NA,NA,NA
EA_exp_3,1,28726,2,158,5,2,z,3,859,258,cr,2,f,20,NA,NA,NA
EA_exp_3,1,28726,2,159,18,2,z,2,2250,198,cr,3,f,20,NA,NA,NA
EA_exp_3,1,28726,2,160,99,2,z,2,2208,175,cr,3,f,20,NA,NA,NA
EA_exp_3,1,28726,2,161,11,2,z,3,1545,225,cr,2,f,20,NA,NA,NA
EA_exp_3,1,28726,2,162,195,1,m,4,1785,473,hit,6,f,20,q,older,1
EA_exp_3,1,28726,2,163,14,2,z,3,1960,320,cr,2,f,20,NA,NA,NA
EA_exp_3,1,28726,2,164,134,1,z,3,1777,196,miss,2,f,20,p,younger,1
EA_exp_3,1,28726,2,165,119,1,z,3,1005,207,miss,2,f,20,p,younger,1
EA_exp_3,1,28726,2,166,142,1,z,3,3014,244,miss,2,f,20,p,younger,1
EA_exp_3,1,28726,2,167,94,2,z,3,2732,229,cr,2,f,20,NA,NA,NA
EA_exp_3,1,28726,2,168,57,2,z,3,4462,1775,cr,2,f,20,NA,NA,NA
EA_exp_3,1,28726,2,169,89,2,z,3,2137,490,cr,2,f,20,NA,NA,NA
EA_exp_3,1,28726,2,170,140,1,m,4,2278,306,hit,6,f,20,q,older,1
EA_exp_3,1,28726,2,171,98,2,z,4,1334,362,cr,1,f,20,NA,NA,NA
EA_exp_3,1,28726,2,172,52,2,z,3,1420,284,cr,2,f,20,NA,NA,NA
EA_exp_3,1,28726,2,173,165,1,z,2,1199,280,miss,3,f,20,q,older,1
EA_exp_3,1,28726,2,174,163,1,m,3,1709,1105,hit,5,f,20,q,older,1
EA_exp_3,1,28726,2,175,137,1,m,3,1319,841,hit,5,f,20,p,younger,1
EA_exp_3,1,28726,2,176,38,2,z,2,2870,268,cr,3,f,20,NA,NA,NA
EA_exp_3,1,28726,2,177,90,2,z,2,1261,246,cr,3,f,20,NA,NA,NA
EA_exp_3,1,28726,2,178,35,2,z,2,843,197,cr,3,f,20,NA,NA,NA
EA_exp_3,1,28726,2,179,37,2,z,2,2063,195,cr,3,f,20,NA,NA,NA
EA_exp_3,1,28726,2,180,32,2,z,2,954,285,cr,3,f,20,NA,NA,NA
EA_exp_3,1,28726,2,181,54,2,z,2,752,205,cr,3,f,20,NA,NA,NA
EA_exp_3,1,28726,2,182,141,1,m,3,1321,3145,hit,5,f,20,p,younger,1
EA_exp_3,1,28726,2,183,92,2,m,3,1482,198,fa,5,f,20,NA,NA,NA
EA_exp_3,1,28726,2,184,157,1,z,2,1247,309,miss,3,f,20,q,older,1
EA_exp_3,1,28726,2,185,128,1,z,2,2109,222,miss,3,f,20,q,older,1
EA_exp_3,1,28726,2,186,51,2,z,2,759,255,cr,3,f,20,NA,NA,NA
EA_exp_3,1,28726,2,187,192,1,z,2,726,289,miss,3,f,20,q,older,1
EA_exp_3,1,28726,2,188,95,2,z,2,1048,244,cr,3,f,20,NA,NA,NA
EA_exp_3,1,28726,2,189,151,1,z,2,1180,197,miss,3,f,20,q,older,1
EA_exp_3,1,28726,2,190,135,1,z,2,701,826,miss,3,f,20,q,older,1
EA_exp_3,1,28726,2,191,129,1,z,2,777,227,miss,3,f,20,p,younger,1
EA_exp_3,1,28726,2,192,122,1,m,3,2110,574,hit,5,f,20,None,NA,1
EA_exp_3,1,28726,2,193,185,1,z,2,1289,188,miss,3,f,20,p,younger,1
EA_exp_3,1,28726,2,194,102,1,z,3,1554,271,miss,2,f,20,None,NA,1
EA_exp_3,1,28726,2,195,97,2,z,3,1062,163,cr,2,f,20,NA,NA,NA
EA_exp_3,1,28726,2,196,113,1,m,2,1742,271,hit,4,f,20,p,younger,1
EA_exp_3,1,28726,2,197,9,2,z,2,4085,247,cr,3,f,20,NA,NA,NA
EA_exp_3,1,28726,2,198,200,1,m,3,1405,382,hit,5,f,20,p,younger,1
EA_exp_3,1,28726,2,199,48,2,z,2,1183,232,cr,3,f,20,NA,NA,NA
EA_exp_3,1,28726,2,200,29,2,z,3,1649,183,cr,2,f,20,NA,NA,NA
EA_exp_3,2,28665,1,1,154,2,m,3,3301,4008,fa,5,f,19,NA,NA,NA
EA_exp_3,2,28665,1,2,46,1,m,4,3704,1343,hit,6,f,19,None,NA,1
EA_exp_3,2,28665,1,3,4,1,m,2,6278,1401,hit,4,f,19,None,NA,1
EA_exp_3,2,28665,1,4,108,2,z,3,1744,1221,cr,2,f,19,NA,NA,NA
EA_exp_3,2,28665,1,5,159,2,z,2,1686,619,cr,3,f,19,NA,NA,NA
EA_exp_3,2,28665,1,6,23,1,m,4,2006,541,hit,6,f,19,None,NA,1
EA_exp_3,2,28665,1,7,41,1,m,4,858,432,hit,6,f,19,None,NA,1
EA_exp_3,2,28665,1,8,166,2,m,4,656,368,fa,6,f,19,NA,NA,NA
EA_exp_3,2,28665,1,9,106,2,z,3,1456,1073,cr,2,f,19,NA,NA,NA
EA_exp_3,2,28665,1,10,137,2,z,3,1125,436,cr,2,f,19,NA,NA,NA
EA_exp_3,2,28665,1,11,65,1,m,4,1219,380,hit,6,f,19,p,younger,1
EA_exp_3,2,28665,1,12,3,1,m,4,768,394,hit,6,f,19,None,NA,1
EA_exp_3,2,28665,1,13,186,2,z,2,1675,402,cr,3,f,19,NA,NA,NA
EA_exp_3,2,28665,1,14,194,2,z,2,1280,456,cr,3,f,19,NA,NA,NA
EA_exp_3,2,28665,1,15,180,2,z,3,1238,912,cr,2,f,19,NA,NA,NA
EA_exp_3,2,28665,1,16,190,2,z,1,1002,958,cr,3,f,19,NA,NA,NA
EA_exp_3,2,28665,1,17,148,2,z,2,1835,473,cr,3,f,19,NA,NA,NA
EA_exp_3,2,28665,1,18,73,1,m,3,793,786,hit,5,f,19,None,NA,1
EA_exp_3,2,28665,1,19,121,2,z,2,1620,572,cr,3,f,19,NA,NA,NA
EA_exp_3,2,28665,1,20,88,1,m,3,761,530,hit,5,f,19,None,NA,1
EA_exp_3,2,28665,1,21,34,1,z,2,1052,461,miss,3,f,19,None,NA,1
EA_exp_3,2,28665,1,22,140,2,z,2,1325,704,cr,3,f,19,NA,NA,NA
EA_exp_3,2,28665,1,23,27,1,z,2,1298,444,miss,3,f,19,None,NA,1
EA_exp_3,2,28665,1,24,6,1,m,3,730,503,hit,5,f,19,None,NA,1
EA_exp_3,2,28665,1,25,43,1,m,4,821,366,hit,6,f,19,None,NA,1
EA_exp_3,2,28665,1,26,127,2,m,2,751,860,fa,4,f,19,NA,NA,NA
EA_exp_3,2,28665,1,27,126,2,z,2,1578,662,cr,3,f,19,NA,NA,NA
EA_exp_3,2,28665,1,28,184,2,z,2,1034,397,cr,3,f,19,NA,NA,NA
EA_exp_3,2,28665,1,29,134,2,z,3,716,476,cr,2,f,19,NA,NA,NA
EA_exp_3,2,28665,1,30,125,2,z,3,729,391,cr,2,f,19,NA,NA,NA
EA_exp_3,2,28665,1,31,165,2,m,1,1635,383,fa,4,f,19,NA,NA,NA
EA_exp_3,2,28665,1,32,47,1,m,3,1106,432,hit,5,f,19,q,older,1
EA_exp_3,2,28665,1,33,191,2,z,2,1231,583,cr,3,f,19,NA,NA,NA
EA_exp_3,2,28665,1,34,95,1,m,4,818,699,hit,6,f,19,None,NA,1
EA_exp_3,2,28665,1,35,172,2,z,3,1438,735,cr,2,f,19,NA,NA,NA
EA_exp_3,2,28665,1,36,76,1,m,3,1059,370,hit,5,f,19,None,NA,1
EA_exp_3,2,28665,1,37,113,2,z,2,1375,503,cr,3,f,19,NA,NA,NA
EA_exp_3,2,28665,1,38,145,2,z,2,997,373,cr,3,f,19,NA,NA,NA
EA_exp_3,2,28665,1,39,124,2,z,2,889,399,cr,3,f,19,NA,NA,NA
EA_exp_3,2,28665,1,40,92,1,m,4,927,405,hit,6,f,19,None,NA,1
EA_exp_3,2,28665,1,41,28,1,m,2,1559,673,hit,4,f,19,None,NA,1
EA_exp_3,2,28665,1,42,54,1,m,4,953,363,hit,6,f,19,None,NA,1
EA_exp_3,2,28665,1,43,167,2,z,1,1371,655,cr,3,f,19,NA,NA,NA
EA_exp_3,2,28665,1,44,62,1,z,2,808,1168,miss,3,f,19,None,NA,1
EA_exp_3,2,28665,1,45,118,2,z,2,1489,560,cr,3,f,19,NA,NA,NA
EA_exp_3,2,28665,1,46,146,2,z,3,891,976,cr,2,f,19,NA,NA,NA
EA_exp_3,2,28665,1,47,185,2,z,1,835,626,cr,3,f,19,NA,NA,NA
EA_exp_3,2,28665,1,48,15,1,z,1,1979,341,miss,3,f,19,None,NA,1
EA_exp_3,2,28665,1,49,55,1,z,2,1095,438,miss,3,f,19,None,NA,1
EA_exp_3,2,28665,1,50,69,1,m,1,758,914,hit,4,f,19,None,NA,1
EA_exp_3,2,28665,1,51,143,2,z,2,940,482,cr,3,f,19,NA,NA,NA
EA_exp_3,2,28665,1,52,117,2,m,1,800,698,fa,4,f,19,NA,NA,NA
EA_exp_3,2,28665,1,53,61,1,m,4,1406,529,hit,6,f,19,None,NA,1
EA_exp_3,2,28665,1,54,200,2,z,3,1547,488,cr,2,f,19,NA,NA,NA
EA_exp_3,2,28665,1,55,128,2,z,2,805,558,cr,3,f,19,NA,NA,NA
EA_exp_3,2,28665,1,56,101,2,z,2,1064,378,cr,3,f,19,NA,NA,NA
EA_exp_3,2,28665,1,57,83,1,z,2,1288,353,miss,3,f,19,None,NA,1
EA_exp_3,2,28665,1,58,151,2,z,3,1174,847,cr,2,f,19,NA,NA,NA
EA_exp_3,2,28665,1,59,37,1,m,2,1210,839,hit,4,f,19,None,NA,1
EA_exp_3,2,28665,1,60,100,1,m,1,888,702,hit,4,f,19,None,NA,1
EA_exp_3,2,28665,1,61,115,2,z,2,1268,473,cr,3,f,19,NA,NA,NA
EA_exp_3,2,28665,1,62,102,2,z,1,841,351,cr,3,f,19,NA,NA,NA
EA_exp_3,2,28665,1,63,120,2,z,2,1059,401,cr,3,f,19,NA,NA,NA
EA_exp_3,2,28665,1,64,58,1,z,2,894,552,miss,3,f,19,None,NA,1
EA_exp_3,2,28665,1,65,80,1,m,2,964,406,hit,4,f,19,None,NA,1
EA_exp_3,2,28665,1,66,94,1,m,3,1031,488,hit,5,f,19,p,younger,1
EA_exp_3,2,28665,1,67,153,2,m,1,856,908,fa,4,f,19,NA,NA,NA
EA_exp_3,2,28665,1,68,116,2,z,2,1882,504,cr,3,f,19,NA,NA,NA
EA_exp_3,2,28665,1,69,70,1,m,4,707,1042,hit,6,f,19,None,NA,1
EA_exp_3,2,28665,1,70,72,1,m,3,1130,710,hit,5,f,19,None,NA,1
EA_exp_3,2,28665,1,71,169,2,z,2,1354,511,cr,3,f,19,NA,NA,NA
EA_exp_3,2,28665,1,72,11,1,z,1,1822,1053,miss,3,f,19,q,older,1
EA_exp_3,2,28665,1,73,26,1,m,1,1029,308,hit,4,f,19,q,older,1
EA_exp_3,2,28665,1,74,136,2,z,2,1417,922,cr,3,f,19,NA,NA,NA
EA_exp_3,2,28665,1,75,192,2,z,3,1576,529,cr,2,f,19,NA,NA,NA
EA_exp_3,2,28665,1,76,32,1,m,4,1359,752,hit,6,f,19,None,NA,1
EA_exp_3,2,28665,1,77,182,2,z,3,1297,473,cr,2,f,19,NA,NA,NA
EA_exp_3,2,28665,1,78,50,1,m,4,1015,520,hit,6,f,19,q,older,1
EA_exp_3,2,28665,1,79,1,1,z,2,1215,510,miss,3,f,19,None,NA,1
EA_exp_3,2,28665,1,80,8,1,z,2,1084,682,miss,3,f,19,q,older,1
EA_exp_3,2,28665,1,81,160,2,z,4,1268,1189,cr,1,f,19,NA,NA,NA
EA_exp_3,2,28665,1,82,24,1,z,2,1238,927,miss,3,f,19,None,NA,1
EA_exp_3,2,28665,1,83,107,2,z,1,1161,886,cr,3,f,19,NA,NA,NA
EA_exp_3,2,28665,1,84,175,2,z,1,2356,447,cr,3,f,19,NA,NA,NA
EA_exp_3,2,28665,1,85,176,2,z,1,955,481,cr,3,f,19,NA,NA,NA
EA_exp_3,2,28665,1,86,19,1,z,2,1039,448,miss,3,f,19,q,older,1
EA_exp_3,2,28665,1,87,199,2,m,1,941,419,fa,4,f,19,NA,NA,NA
EA_exp_3,2,28665,1,88,49,1,m,1,995,389,hit,4,f,19,p,younger,1
EA_exp_3,2,28665,1,89,25,1,m,2,1015,888,hit,4,f,19,None,NA,1
EA_exp_3,2,28665,1,90,7,1,m,3,902,411,hit,5,f,19,None,NA,1
EA_exp_3,2,28665,1,91,142,2,z,2,988,1166,cr,3,f,19,NA,NA,NA
EA_exp_3,2,28665,1,92,156,2,z,2,1310,502,cr,3,f,19,NA,NA,NA
EA_exp_3,2,28665,1,93,30,1,z,3,739,543,miss,2,f,19,None,NA,1
EA_exp_3,2,28665,1,94,109,2,z,3,1021,460,cr,2,f,19,NA,NA,NA
EA_exp_3,2,28665,1,95,196,2,z,4,953,943,cr,1,f,19,NA,NA,NA
EA_exp_3,2,28665,1,96,147,2,z,3,1273,448,cr,2,f,19,NA,NA,NA
EA_exp_3,2,28665,1,97,98,1,m,4,1377,450,hit,6,f,19,None,NA,1
EA_exp_3,2,28665,1,98,87,1,m,3,1197,1131,hit,5,f,19,None,NA,1
EA_exp_3,2,28665,1,99,173,2,z,3,2191,417,cr,2,f,19,NA,NA,NA
EA_exp_3,2,28665,1,100,189,2,z,2,979,532,cr,3,f,19,NA,NA,NA
EA_exp_3,2,28665,1,101,16,1,m,2,1666,423,hit,4,f,19,None,NA,1
EA_exp_3,2,28665,1,102,149,2,z,3,1381,1050,cr,2,f,19,NA,NA,NA
EA_exp_3,2,28665,1,103,21,1,z,1,1632,569,miss,3,f,19,q,older,1
EA_exp_3,2,28665,1,104,179,2,z,1,1699,393,cr,3,f,19,NA,NA,NA
EA_exp_3,2,28665,1,105,59,1,z,2,1017,620,miss,3,f,19,None,NA,1
EA_exp_3,2,28665,1,106,133,2,m,1,1204,445,fa,4,f,19,NA,NA,NA
EA_exp_3,2,28665,1,107,197,2,z,1,1534,458,cr,3,f,19,NA,NA,NA
EA_exp_3,2,28665,1,108,63,1,z,2,1816,426,miss,3,f,19,q,older,1
EA_exp_3,2,28665,1,109,99,1,m,2,969,445,hit,4,f,19,q,older,1
EA_exp_3,2,28665,1,110,85,1,m,3,1133,681,hit,5,f,19,None,NA,1
EA_exp_3,2,28665,1,111,29,1,m,2,1279,390,hit,4,f,19,None,NA,1
EA_exp_3,2,28665,1,112,178,2,z,2,1238,542,cr,3,f,19,NA,NA,NA
EA_exp_3,2,28665,1,113,181,2,m,2,812,420,fa,4,f,19,NA,NA,NA
EA_exp_3,2,28665,1,114,170,2,z,3,965,839,cr,2,f,19,NA,NA,NA
EA_exp_3,2,28665,1,115,122,2,z,3,1584,513,cr,2,f,19,NA,NA,NA
EA_exp_3,2,28665,1,116,112,2,z,2,830,534,cr,3,f,19,NA,NA,NA
EA_exp_3,2,28665,1,117,97,1,m,4,1027,386,hit,6,f,19,None,NA,1
EA_exp_3,2,28665,1,118,12,1,m,4,915,392,hit,6,f,19,None,NA,1
EA_exp_3,2,28665,1,119,138,2,z,2,1754,478,cr,3,f,19,NA,NA,NA
EA_exp_3,2,28665,1,120,162,2,z,2,959,351,cr,3,f,19,NA,NA,NA
EA_exp_3,2,28665,1,121,20,1,m,2,1171,316,hit,4,f,19,q,older,1
EA_exp_3,2,28665,1,122,195,2,z,4,1138,814,cr,1,f,19,NA,NA,NA
EA_exp_3,2,28665,1,123,75,1,m,2,1983,489,hit,4,f,19,q,older,1
EA_exp_3,2,28665,1,124,86,1,m,2,777,385,hit,4,f,19,None,NA,1
EA_exp_3,2,28665,1,125,57,1,m,4,1203,460,hit,6,f,19,None,NA,1
EA_exp_3,2,28665,1,126,77,1,m,3,937,463,hit,5,f,19,None,NA,1
EA_exp_3,2,28665,1,127,132,2,z,2,1837,511,cr,3,f,19,NA,NA,NA
EA_exp_3,2,28665,1,128,174,2,z,1,1084,474,cr,3,f,19,NA,NA,NA
EA_exp_3,2,28665,1,129,78,1,m,4,939,539,hit,6,f,19,None,NA,1
EA_exp_3,2,28665,1,130,31,1,z,2,1497,518,miss,3,f,19,None,NA,1
EA_exp_3,2,28665,1,131,81,1,z,2,882,1433,miss,3,f,19,None,NA,1
EA_exp_3,2,28665,1,132,110,2,z,2,1097,447,cr,3,f,19,NA,NA,NA
EA_exp_3,2,28665,1,133,71,1,m,2,1181,729,hit,4,f,19,None,NA,1
EA_exp_3,2,28665,1,134,5,1,z,3,1596,678,miss,2,f,19,None,NA,1
EA_exp_3,2,28665,1,135,56,1,m,4,860,740,hit,6,f,19,None,NA,1
EA_exp_3,2,28665,1,136,150,2,z,3,1558,1187,cr,2,f,19,NA,NA,NA
EA_exp_3,2,28665,1,137,53,1,m,4,1399,662,hit,6,f,19,None,NA,1
EA_exp_3,2,28665,1,138,183,2,z,2,1532,553,cr,3,f,19,NA,NA,NA
EA_exp_3,2,28665,1,139,114,2,z,2,742,1360,cr,3,f,19,NA,NA,NA
EA_exp_3,2,28665,1,140,66,1,m,3,1230,483,hit,5,f,19,q,older,1
EA_exp_3,2,28665,1,141,2,1,m,2,785,1227,hit,4,f,19,None,NA,1
EA_exp_3,2,28665,1,142,36,1,z,2,1467,2058,miss,3,f,19,None,NA,1
EA_exp_3,2,28665,1,143,188,2,m,2,2540,350,fa,4,f,19,NA,NA,NA
EA_exp_3,2,28665,1,144,42,1,m,4,910,421,hit,6,f,19,None,NA,1
EA_exp_3,2,28665,1,145,91,1,m,4,2321,387,hit,6,f,19,p,younger,1
EA_exp_3,2,28665,1,146,111,2,z,2,1378,503,cr,3,f,19,NA,NA,NA
EA_exp_3,2,28665,1,147,104,2,z,2,1139,368,cr,3,f,19,NA,NA,NA
EA_exp_3,2,28665,1,148,171,2,z,2,947,404,cr,3,f,19,NA,NA,NA
EA_exp_3,2,28665,1,149,82,1,z,3,863,525,miss,2,f,19,None,NA,1
EA_exp_3,2,28665,1,150,193,2,z,2,1289,479,cr,3,f,19,NA,NA,NA
EA_exp_3,2,28665,1,151,38,1,m,2,1151,537,hit,4,f,19,None,NA,1
EA_exp_3,2,28665,1,152,45,1,m,3,821,446,hit,5,f,19,None,NA,1
EA_exp_3,2,28665,1,153,152,2,z,2,943,386,cr,3,f,19,NA,NA,NA
EA_exp_3,2,28665,1,154,161,2,z,2,949,407,cr,3,f,19,NA,NA,NA
EA_exp_3,2,28665,1,155,35,1,m,3,936,492,hit,5,f,19,None,NA,1
EA_exp_3,2,28665,1,156,144,2,m,2,971,333,fa,4,f,19,NA,NA,NA
EA_exp_3,2,28665,1,157,9,1,z,2,751,444,miss,3,f,19,None,NA,1
EA_exp_3,2,28665,1,158,119,2,z,3,750,456,cr,2,f,19,NA,NA,NA
EA_exp_3,2,28665,1,159,131,2,z,3,1017,552,cr,2,f,19,NA,NA,NA
EA_exp_3,2,28665,1,160,14,1,m,3,1188,1134,hit,5,f,19,q,older,1
EA_exp_3,2,28665,1,161,157,2,z,2,1439,417,cr,3,f,19,NA,NA,NA
EA_exp_3,2,28665,1,162,103,2,z,2,909,390,cr,3,f,19,NA,NA,NA
EA_exp_3,2,28665,1,163,33,1,m,4,1192,561,hit,6,f,19,None,NA,1
EA_exp_3,2,28665,1,164,130,2,z,1,1404,494,cr,3,f,19,NA,NA,NA
EA_exp_3,2,28665,1,165,163,2,z,2,1043,522,cr,3,f,19,NA,NA,NA
EA_exp_3,2,28665,1,166,22,1,m,1,1096,853,hit,4,f,19,None,NA,1
EA_exp_3,2,28665,1,167,67,1,z,4,1589,687,miss,1,f,19,None,NA,1
EA_exp_3,2,28665,1,168,158,2,z,4,947,391,cr,1,f,19,NA,NA,NA
EA_exp_3,2,28665,1,169,18,1,m,2,1004,459,hit,4,f,19,p,younger,1
EA_exp_3,2,28665,1,170,155,2,z,3,1242,530,cr,2,f,19,NA,NA,NA
EA_exp_3,2,28665,1,171,64,1,m,3,1294,515,hit,5,f,19,None,NA,1
EA_exp_3,2,28665,1,172,139,2,z,2,847,440,cr,3,f,19,NA,NA,NA
EA_exp_3,2,28665,1,173,51,1,z,3,694,454,miss,2,f,19,None,NA,1
EA_exp_3,2,28665,1,174,39,1,m,4,789,928,hit,6,f,19,p,younger,1
EA_exp_3,2,28665,1,175,90,1,m,3,2121,911,hit,5,f,19,None,NA,1
EA_exp_3,2,28665,1,176,60,1,m,2,636,685,hit,4,f,19,None,NA,1
EA_exp_3,2,28665,1,177,74,1,z,2,2129,423,miss,3,f,19,None,NA,1
EA_exp_3,2,28665,1,178,168,2,z,2,950,380,cr,3,f,19,NA,NA,NA
EA_exp_3,2,28665,1,179,129,2,m,1,1470,508,fa,4,f,19,NA,NA,NA
EA_exp_3,2,28665,1,180,44,1,m,4,3753,1229,hit,6,f,19,None,NA,1
EA_exp_3,2,28665,1,181,52,1,z,2,1968,520,miss,3,f,19,None,NA,1
EA_exp_3,2,28665,1,182,68,1,m,4,867,827,hit,6,f,19,q,older,1
EA_exp_3,2,28665,1,183,84,1,m,1,1327,528,hit,4,f,19,None,NA,1
EA_exp_3,2,28665,1,184,17,1,m,3,748,681,hit,5,f,19,None,NA,1
EA_exp_3,2,28665,1,185,135,2,z,1,1200,665,cr,3,f,19,NA,NA,NA
EA_exp_3,2,28665,1,186,13,1,m,2,1792,385,hit,4,f,19,None,NA,1
EA_exp_3,2,28665,1,187,48,1,m,1,1333,327,hit,4,f,19,None,NA,1
EA_exp_3,2,28665,1,188,89,1,m,2,650,411,hit,4,f,19,None,NA,1
EA_exp_3,2,28665,1,189,10,1,m,3,1343,351,hit,5,f,19,None,NA,1
EA_exp_3,2,28665,1,190,105,2,z,3,1109,575,cr,2,f,19,NA,NA,NA
EA_exp_3,2,28665,1,191,177,2,z,3,697,423,cr,2,f,19,NA,NA,NA
EA_exp_3,2,28665,1,192,164,2,z,3,679,390,cr,2,f,19,NA,NA,NA
EA_exp_3,2,28665,1,193,96,1,m,1,1642,415,hit,4,f,19,None,NA,1
EA_exp_3,2,28665,1,194,79,1,m,4,1072,383,hit,6,f,19,None,NA,1
EA_exp_3,2,28665,1,195,141,2,z,3,1355,452,cr,2,f,19,NA,NA,NA
EA_exp_3,2,28665,1,196,123,2,z,3,677,417,cr,2,f,19,NA,NA,NA
EA_exp_3,2,28665,1,197,187,2,z,3,801,491,cr,2,f,19,NA,NA,NA
EA_exp_3,2,28665,1,198,93,1,m,4,993,410,hit,6,f,19,None,NA,1
EA_exp_3,2,28665,1,199,198,2,z,2,1387,414,cr,3,f,19,NA,NA,NA
EA_exp_3,2,28665,1,200,40,1,m,3,993,832,hit,5,f,19,None,NA,1
EA_exp_3,3,28653,2,1,74,2,m,3,2367,2859,fa,5,f,19,NA,NA,NA
EA_exp_3,3,28653,2,2,173,1,m,3,3337,1694,hit,5,f,19,q,older,1
EA_exp_3,3,28653,2,3,106,1,m,3,2841,1811,hit,5,f,19,q,older,1
EA_exp_3,3,28653,2,4,147,1,z,3,2236,1612,miss,2,f,19,p,younger,1
EA_exp_3,3,28653,2,5,80,2,z,4,1723,2962,cr,1,f,19,NA,NA,NA
EA_exp_3,3,28653,2,6,184,1,m,4,1769,1487,hit,6,f,19,p,younger,1
EA_exp_3,3,28653,2,7,99,2,m,4,1543,671,fa,6,f,19,NA,NA,NA
EA_exp_3,3,28653,2,8,189,1,m,3,2772,945,hit,5,f,19,q,older,1
EA_exp_3,3,28653,2,9,133,1,z,3,1565,1528,miss,2,f,19,q,older,1
EA_exp_3,3,28653,2,10,181,1,z,2,3801,670,miss,3,f,19,q,older,1
EA_exp_3,3,28653,2,11,55,2,z,2,2451,1228,cr,3,f,19,NA,NA,NA
EA_exp_3,3,28653,2,12,136,1,m,3,2233,1053,hit,5,f,19,q,older,1
EA_exp_3,3,28653,2,13,27,2,z,2,1649,411,cr,3,f,19,NA,NA,NA
EA_exp_3,3,28653,2,14,102,1,m,2,1180,982,hit,4,f,19,q,older,1
EA_exp_3,3,28653,2,15,72,2,z,2,2306,1023,cr,3,f,19,NA,NA,NA
EA_exp_3,3,28653,2,16,45,2,m,3,1843,999,fa,5,f,19,NA,NA,NA
EA_exp_3,3,28653,2,17,85,2,m,3,1263,167,fa,5,f,19,NA,NA,NA
EA_exp_3,3,28653,2,18,13,2,z,3,1392,516,cr,2,f,19,NA,NA,NA
EA_exp_3,3,28653,2,19,91,2,z,2,1422,1105,cr,3,f,19,NA,NA,NA
EA_exp_3,3,28653,2,20,114,1,z,3,1014,583,miss,2,f,19,q,older,1
EA_exp_3,3,28653,2,21,129,1,z,3,896,1014,miss,2,f,19,q,older,1
EA_exp_3,3,28653,2,22,98,2,z,3,1106,1790,cr,2,f,19,NA,NA,NA
EA_exp_3,3,28653,2,23,148,1,z,2,1447,871,miss,3,f,19,q,older,1
EA_exp_3,3,28653,2,24,112,1,z,2,1751,569,miss,3,f,19,q,older,1
EA_exp_3,3,28653,2,25,78,2,z,3,948,1623,cr,2,f,19,NA,NA,NA
EA_exp_3,3,28653,2,26,52,2,z,3,1046,631,cr,2,f,19,NA,NA,NA
EA_exp_3,3,28653,2,27,25,2,z,3,1215,840,cr,2,f,19,NA,NA,NA
EA_exp_3,3,28653,2,28,8,2,z,4,2008,961,cr,1,f,19,NA,NA,NA
EA_exp_3,3,28653,2,29,71,2,m,2,2444,1011,fa,4,f,19,NA,NA,NA
EA_exp_3,3,28653,2,30,171,1,m,3,2107,754,hit,5,f,19,q,older,1
EA_exp_3,3,28653,2,31,119,1,m,4,1684,858,hit,6,f,19,p,younger,1
EA_exp_3,3,28653,2,32,101,1,z,3,1242,482,miss,2,f,19,p,younger,1
EA_exp_3,3,28653,2,33,70,2,z,3,1177,458,cr,2,f,19,NA,NA,NA
EA_exp_3,3,28653,2,34,161,1,z,3,824,450,miss,2,f,19,q,older,1
EA_exp_3,3,28653,2,35,163,1,z,1,1296,2837,miss,3,f,19,q,older,1
EA_exp_3,3,28653,2,36,2,2,z,2,1780,1273,cr,3,f,19,NA,NA,NA
EA_exp_3,3,28653,2,37,143,1,m,3,1045,694,hit,5,f,19,q,older,1
EA_exp_3,3,28653,2,38,187,1,m,3,1260,403,hit,5,f,19,q,older,1
EA_exp_3,3,28653,2,39,180,1,z,2,933,632,miss,3,f,19,p,younger,1
EA_exp_3,3,28653,2,40,170,1,m,4,1248,679,hit,6,f,19,p,younger,1
EA_exp_3,3,28653,2,41,128,1,m,3,1087,637,hit,5,f,19,q,older,1
EA_exp_3,3,28653,2,42,137,1,z,3,1682,330,miss,2,f,19,p,younger,1
EA_exp_3,3,28653,2,43,16,2,z,3,1040,815,cr,2,f,19,NA,NA,NA
EA_exp_3,3,28653,2,44,87,2,m,3,2194,674,fa,5,f,19,NA,NA,NA
EA_exp_3,3,28653,2,45,144,1,z,2,1723,461,miss,3,f,19,q,older,1
EA_exp_3,3,28653,2,46,23,2,m,3,1631,402,fa,5,f,19,NA,NA,NA
EA_exp_3,3,28653,2,47,9,2,z,2,1462,405,cr,3,f,19,NA,NA,NA
EA_exp_3,3,28653,2,48,65,2,z,3,1235,814,cr,2,f,19,NA,NA,NA
EA_exp_3,3,28653,2,49,185,1,z,3,1697,1348,miss,2,f,19,q,older,1
EA_exp_3,3,28653,2,50,82,2,z,2,898,741,cr,3,f,19,NA,NA,NA
EA_exp_3,3,28653,2,51,83,2,z,3,620,570,cr,2,f,19,NA,NA,NA
EA_exp_3,3,28653,2,52,68,2,z,3,1348,744,cr,2,f,19,NA,NA,NA
EA_exp_3,3,28653,2,53,199,1,m,3,1002,494,hit,5,f,19,p,younger,1
EA_exp_3,3,28653,2,54,123,1,m,4,1371,926,hit,6,f,19,q,older,1
EA_exp_3,3,28653,2,55,159,1,z,2,1580,805,miss,3,f,19,p,younger,1
EA_exp_3,3,28653,2,56,116,1,m,3,1077,819,hit,5,f,19,q,older,1
EA_exp_3,3,28653,2,57,76,2,m,3,2275,819,fa,5,f,19,NA,NA,NA
EA_exp_3,3,28653,2,58,17,2,z,2,1359,710,cr,3,f,19,NA,NA,NA
EA_exp_3,3,28653,2,59,10,2,m,3,1048,1018,fa,5,f,19,NA,NA,NA
EA_exp_3,3,28653,2,60,93,2,m,4,1423,2275,fa,6,f,19,NA,NA,NA
EA_exp_3,3,28653,2,61,186,1,m,4,1736,638,hit,6,f,19,p,younger,1
EA_exp_3,3,28653,2,62,126,1,z,3,1363,713,miss,2,f,19,q,older,1
EA_exp_3,3,28653,2,63,46,2,z,3,1945,537,cr,2,f,19,NA,NA,NA
EA_exp_3,3,28653,2,64,58,2,z,3,1014,502,cr,2,f,19,NA,NA,NA
EA_exp_3,3,28653,2,65,21,2,m,3,994,1188,fa,5,f,19,NA,NA,NA
EA_exp_3,3,28653,2,66,34,2,z,3,2408,479,cr,2,f,19,NA,NA,NA
EA_exp_3,3,28653,2,67,115,1,z,3,1165,377,miss,2,f,19,q,older,1
EA_exp_3,3,28653,2,68,176,1,m,3,1579,1477,hit,5,f,19,p,younger,1
EA_exp_3,3,28653,2,69,18,2,z,3,1277,1457,cr,2,f,19,NA,NA,NA
EA_exp_3,3,28653,2,70,154,1,z,2,842,513,miss,3,f,19,q,older,1
EA_exp_3,3,28653,2,71,151,1,m,3,1131,1978,hit,5,f,19,q,older,1
EA_exp_3,3,28653,2,72,118,1,m,3,1493,586,hit,5,f,19,p,younger,1
EA_exp_3,3,28653,2,73,152,1,m,3,1913,320,hit,5,f,19,p,younger,1
EA_exp_3,3,28653,2,74,192,1,m,4,1507,1377,hit,6,f,19,q,older,1
EA_exp_3,3,28653,2,75,28,2,z,2,1422,924,cr,3,f,19,NA,NA,NA
EA_exp_3,3,28653,2,76,105,1,m,3,3049,808,hit,5,f,19,q,older,1
EA_exp_3,3,28653,2,77,127,1,z,2,1192,419,miss,3,f,19,p,younger,1
EA_exp_3,3,28653,2,78,30,2,z,2,1142,335,cr,3,f,19,NA,NA,NA
EA_exp_3,3,28653,2,79,62,2,z,3,1043,578,cr,2,f,19,NA,NA,NA
EA_exp_3,3,28653,2,80,200,1,m,4,1055,1324,hit,6,f,19,p,younger,1
EA_exp_3,3,28653,2,81,113,1,z,3,2971,811,miss,2,f,19,q,older,1
EA_exp_3,3,28653,2,82,41,2,z,3,2710,906,cr,2,f,19,NA,NA,NA
EA_exp_3,3,28653,2,83,188,1,m,2,916,811,hit,4,f,19,q,older,1
EA_exp_3,3,28653,2,84,5,2,m,2,1440,509,fa,4,f,19,NA,NA,NA
EA_exp_3,3,28653,2,85,47,2,z,2,1194,388,cr,3,f,19,NA,NA,NA
EA_exp_3,3,28653,2,86,32,2,z,3,1413,454,cr,2,f,19,NA,NA,NA
EA_exp_3,3,28653,2,87,40,2,z,3,1525,434,cr,2,f,19,NA,NA,NA
EA_exp_3,3,28653,2,88,12,2,z,2,1343,501,cr,3,f,19,NA,NA,NA
EA_exp_3,3,28653,2,89,42,2,z,2,1284,456,cr,3,f,19,NA,NA,NA
EA_exp_3,3,28653,2,90,158,1,z,3,1351,507,miss,2,f,19,q,older,1
EA_exp_3,3,28653,2,91,162,1,z,2,1431,424,miss,3,f,19,q,older,1
EA_exp_3,3,28653,2,92,153,1,z,3,555,717,miss,2,f,19,q,older,1
EA_exp_3,3,28653,2,93,63,2,z,3,1056,432,cr,2,f,19,NA,NA,NA
EA_exp_3,3,28653,2,94,138,1,m,3,753,492,hit,5,f,19,p,younger,1
EA_exp_3,3,28653,2,95,174,1,m,3,1062,377,hit,5,f,19,q,older,1
EA_exp_3,3,28653,2,96,139,1,m,4,1084,681,hit,6,f,19,p,younger,1
EA_exp_3,3,28653,2,97,19,2,z,3,946,387,cr,2,f,19,NA,NA,NA
EA_exp_3,3,28653,2,98,6,2,m,3,900,602,fa,5,f,19,NA,NA,NA
EA_exp_3,3,28653,2,99,141,1,z,3,1399,534,miss,2,f,19,q,older,1
EA_exp_3,3,28653,2,100,14,2,z,3,1140,461,cr,2,f,19,NA,NA,NA
EA_exp_3,3,28653,2,101,196,1,m,3,1276,322,hit,5,f,19,q,older,1
EA_exp_3,3,28653,2,102,67,2,z,2,1205,448,cr,3,f,19,NA,NA,NA
EA_exp_3,3,28653,2,103,145,1,m,4,1122,844,hit,6,f,19,q,older,1
EA_exp_3,3,28653,2,104,79,2,z,3,1036,797,cr,2,f,19,NA,NA,NA
EA_exp_3,3,28653,2,105,61,2,z,2,1598,408,cr,3,f,19,NA,NA,NA
EA_exp_3,3,28653,2,106,109,1,m,4,1098,503,hit,6,f,19,q,older,1
EA_exp_3,3,28653,2,107,86,2,z,3,1238,396,cr,2,f,19,NA,NA,NA
EA_exp_3,3,28653,2,108,183,1,z,3,1419,431,miss,2,f,19,p,younger,1
EA_exp_3,3,28653,2,109,172,1,z,3,1008,496,miss,2,f,19,q,older,1
EA_exp_3,3,28653,2,110,94,2,z,3,957,465,cr,2,f,19,NA,NA,NA
EA_exp_3,3,28653,2,111,140,1,z,3,1043,352,miss,2,f,19,q,older,1
EA_exp_3,3,28653,2,112,104,1,z,2,1524,399,miss,3,f,19,p,younger,1
EA_exp_3,3,28653,2,113,26,2,z,2,836,393,cr,3,f,19,NA,NA,NA
EA_exp_3,3,28653,2,114,69,2,z,2,747,662,cr,3,f,19,NA,NA,NA
EA_exp_3,3,28653,2,115,37,2,z,3,908,482,cr,2,f,19,NA,NA,NA
EA_exp_3,3,28653,2,116,157,1,m,3,900,422,hit,5,f,19,q,older,1
EA_exp_3,3,28653,2,117,7,2,z,2,1063,326,cr,3,f,19,NA,NA,NA
EA_exp_3,3,28653,2,118,197,1,z,2,939,271,miss,3,f,19,q,older,1
EA_exp_3,3,28653,2,119,88,2,m,3,1557,176,fa,5,f,19,NA,NA,NA
EA_exp_3,3,28653,2,120,38,2,z,2,1101,232,cr,3,f,19,NA,NA,NA
EA_exp_3,3,28653,2,121,124,1,z,2,1169,315,miss,3,f,19,p,younger,1
EA_exp_3,3,28653,2,122,75,2,z,3,592,290,cr,2,f,19,NA,NA,NA
EA_exp_3,3,28653,2,123,43,2,z,3,1227,416,cr,2,f,19,NA,NA,NA
EA_exp_3,3,28653,2,124,90,2,z,2,819,251,cr,3,f,19,NA,NA,NA
EA_exp_3,3,28653,2,125,168,1,z,3,836,281,miss,2,f,19,q,older,1
EA_exp_3,3,28653,2,126,60,2,z,3,690,302,cr,2,f,19,NA,NA,NA
EA_exp_3,3,28653,2,127,177,1,z,3,707,320,miss,2,f,19,q,older,1
EA_exp_3,3,28653,2,128,169,1,z,3,962,408,miss,2,f,19,q,older,1
EA_exp_3,3,28653,2,129,73,2,m,3,1384,1051,fa,5,f,19,NA,NA,NA
EA_exp_3,3,28653,2,130,29,2,m,3,1856,401,fa,5,f,19,NA,NA,NA
EA_exp_3,3,28653,2,131,84,2,z,2,784,316,cr,3,f,19,NA,NA,NA
EA_exp_3,3,28653,2,132,190,1,m,3,1364,484,hit,5,f,19,q,older,1
EA_exp_3,3,28653,2,133,193,1,m,4,1457,385,hit,6,f,19,q,older,1
EA_exp_3,3,28653,2,134,131,1,z,2,1764,742,miss,3,f,19,q,older,1
EA_exp_3,3,28653,2,135,167,1,m,4,1580,467,hit,6,f,19,q,older,1
EA_exp_3,3,28653,2,136,53,2,z,3,1090,447,cr,2,f,19,NA,NA,NA
EA_exp_3,3,28653,2,137,20,2,z,2,1102,301,cr,3,f,19,NA,NA,NA
EA_exp_3,3,28653,2,138,96,2,m,3,1489,303,fa,5,f,19,NA,NA,NA
EA_exp_3,3,28653,2,139,178,1,m,3,1030,404,hit,5,f,19,q,older,1
EA_exp_3,3,28653,2,140,95,2,z,2,1397,231,cr,3,f,19,NA,NA,NA
EA_exp_3,3,28653,2,141,179,1,z,2,643,542,miss,3,f,19,q,older,1
EA_exp_3,3,28653,2,142,24,2,m,2,1067,570,fa,4,f,19,NA,NA,NA
EA_exp_3,3,28653,2,143,160,1,m,4,1397,390,hit,6,f,19,p,younger,1
EA_exp_3,3,28653,2,144,48,2,z,2,938,444,cr,3,f,19,NA,NA,NA
EA_exp_3,3,28653,2,145,122,1,m,4,1103,361,hit,6,f,19,p,younger,1
EA_exp_3,3,28653,2,146,130,1,m,3,1244,788,hit,5,f,19,q,older,1
EA_exp_3,3,28653,2,147,92,2,m,4,1156,224,fa,6,f,19,NA,NA,NA
EA_exp_3,3,28653,2,148,135,1,z,3,969,284,miss,2,f,19,q,older,1
EA_exp_3,3,28653,2,149,54,2,z,3,978,228,cr,2,f,19,NA,NA,NA
EA_exp_3,3,28653,2,150,64,2,z,3,828,261,cr,2,f,19,NA,NA,NA
EA_exp_3,3,28653,2,151,146,1,z,3,703,457,miss,2,f,19,q,older,1
EA_exp_3,3,28653,2,152,1,2,m,3,953,508,fa,5,f,19,NA,NA,NA
EA_exp_3,3,28653,2,153,108,1,m,4,1177,324,hit,6,f,19,q,older,1
EA_exp_3,3,28653,2,154,164,1,z,3,1259,624,miss,2,f,19,p,younger,1
EA_exp_3,3,28653,2,155,36,2,z,3,1397,201,cr,2,f,19,NA,NA,NA
EA_exp_3,3,28653,2,156,51,2,m,3,1284,857,fa,5,f,19,NA,NA,NA
EA_exp_3,3,28653,2,157,120,1,m,3,730,404,hit,5,f,19,q,older,1
EA_exp_3,3,28653,2,158,100,2,z,3,1124,385,cr,2,f,19,NA,NA,NA
EA_exp_3,3,28653,2,159,50,2,z,3,1076,322,cr,2,f,19,NA,NA,NA
EA_exp_3,3,28653,2,160,132,1,z,3,1926,226,miss,2,f,19,p,younger,1
EA_exp_3,3,28653,2,161,155,1,z,3,717,247,miss,2,f,19,q,older,1
EA_exp_3,3,28653,2,162,89,2,z,3,895,261,cr,2,f,19,NA,NA,NA
EA_exp_3,3,28653,2,163,3,2,z,3,557,544,cr,2,f,19,NA,NA,NA
EA_exp_3,3,28653,2,164,142,1,z,2,1101,377,miss,3,f,19,q,older,1
EA_exp_3,3,28653,2,165,125,1,z,2,876,178,miss,3,f,19,q,older,1
EA_exp_3,3,28653,2,166,149,1,z,2,558,240,miss,3,f,19,q,older,1
EA_exp_3,3,28653,2,167,4,2,z,2,584,281,cr,3,f,19,NA,NA,NA
EA_exp_3,3,28653,2,168,117,1,m,3,675,352,hit,5,f,19,p,younger,1
EA_exp_3,3,28653,2,169,15,2,z,2,851,200,cr,3,f,19,NA,NA,NA
EA_exp_3,3,28653,2,170,11,2,z,3,661,290,cr,2,f,19,NA,NA,NA
EA_exp_3,3,28653,2,171,134,1,z,3,806,367,miss,2,f,19,p,younger,1
EA_exp_3,3,28653,2,172,195,1,z,1,693,1521,miss,3,f,19,q,older,1
EA_exp_3,3,28653,2,173,39,2,z,2,1171,1520,cr,3,f,19,NA,NA,NA
EA_exp_3,3,28653,2,174,121,1,z,2,870,363,miss,3,f,19,p,younger,1
EA_exp_3,3,28653,2,175,191,1,m,3,1099,316,hit,5,f,19,q,older,1
EA_exp_3,3,28653,2,176,77,2,z,2,944,244,cr,3,f,19,NA,NA,NA
EA_exp_3,3,28653,2,177,66,2,z,2,1150,168,cr,3,f,19,NA,NA,NA
EA_exp_3,3,28653,2,178,111,1,z,3,1138,431,miss,2,f,19,q,older,1
EA_exp_3,3,28653,2,179,59,2,z,3,881,356,cr,2,f,19,NA,NA,NA
EA_exp_3,3,28653,2,180,150,1,m,3,1321,269,hit,5,f,19,p,younger,1
EA_exp_3,3,28653,2,181,35,2,z,2,677,258,cr,3,f,19,NA,NA,NA
EA_exp_3,3,28653,2,182,156,1,m,3,1177,306,hit,5,f,19,p,younger,1
EA_exp_3,3,28653,2,183,103,1,m,4,905,957,hit,6,f,19,q,older,1
EA_exp_3,3,28653,2,184,56,2,z,3,1066,312,cr,2,f,19,NA,NA,NA
EA_exp_3,3,28653,2,185,182,1,m,3,1166,263,hit,5,f,19,q,older,1
EA_exp_3,3,28653,2,186,22,2,m,3,1312,132,fa,5,f,19,NA,NA,NA
EA_exp_3,3,28653,2,187,44,2,z,2,1043,256,cr,3,f,19,NA,NA,NA
EA_exp_3,3,28653,2,188,97,2,z,2,743,178,cr,3,f,19,NA,NA,NA
EA_exp_3,3,28653,2,189,165,1,z,2,553,143,miss,3,f,19,q,older,1
EA_exp_3,3,28653,2,190,49,2,z,2,810,195,cr,3,f,19,NA,NA,NA
EA_exp_3,3,28653,2,191,194,1,z,2,637,174,miss,3,f,19,q,older,1
EA_exp_3,3,28653,2,192,107,1,z,3,361,164,miss,2,f,19,q,older,1
EA_exp_3,3,28653,2,193,175,1,z,3,497,165,miss,2,f,19,q,older,1
EA_exp_3,3,28653,2,194,198,1,m,4,1294,197,hit,6,f,19,q,older,1
EA_exp_3,3,28653,2,195,31,2,z,3,927,131,cr,2,f,19,NA,NA,NA
EA_exp_3,3,28653,2,196,33,2,z,3,656,383,cr,2,f,19,NA,NA,NA
EA_exp_3,3,28653,2,197,81,2,z,2,561,964,cr,3,f,19,NA,NA,NA
EA_exp_3,3,28653,2,198,57,2,z,2,639,655,cr,3,f,19,NA,NA,NA
EA_exp_3,3,28653,2,199,110,1,z,2,584,584,miss,3,f,19,q,older,1
EA_exp_3,3,28653,2,200,166,1,z,3,838,251,miss,2,f,19,q,older,1
EA_exp_3,4,28652,1,1,181,2,z,3,2610,2318,cr,2,m,20,NA,NA,NA
EA_exp_3,4,28652,1,2,189,2,z,3,3313,2040,cr,2,m,20,NA,NA,NA
EA_exp_3,4,28652,1,3,122,2,z,2,3454,2319,cr,3,m,20,NA,NA,NA
EA_exp_3,4,28652,1,4,165,2,z,2,2057,1652,cr,3,m,20,NA,NA,NA
EA_exp_3,4,28652,1,5,36,1,m,4,2773,1468,hit,6,m,20,p,younger,1
EA_exp_3,4,28652,1,6,193,2,z,2,2592,1155,cr,3,m,20,NA,NA,NA
EA_exp_3,4,28652,1,7,159,2,z,2,2181,1336,cr,3,m,20,NA,NA,NA
EA_exp_3,4,28652,1,8,131,2,z,2,2273,1554,cr,3,m,20,NA,NA,NA
EA_exp_3,4,28652,1,9,92,1,m,4,1557,672,hit,6,m,20,p,younger,1
EA_exp_3,4,28652,1,10,24,1,m,4,1513,772,hit,6,m,20,q,older,1
EA_exp_3,4,28652,1,11,6,1,m,4,1060,1140,hit,6,m,20,q,older,1
EA_exp_3,4,28652,1,12,166,2,z,2,2456,671,cr,3,m,20,NA,NA,NA
EA_exp_3,4,28652,1,13,136,2,z,3,1589,1102,cr,2,m,20,NA,NA,NA
EA_exp_3,4,28652,1,14,172,2,z,3,1505,785,cr,2,m,20,NA,NA,NA
EA_exp_3,4,28652,1,15,81,1,m,3,1950,926,hit,5,m,20,q,older,1
EA_exp_3,4,28652,1,16,16,1,m,2,2840,1139,hit,4,m,20,p,younger,1
EA_exp_3,4,28652,1,17,169,2,z,2,1606,638,cr,3,m,20,NA,NA,NA
EA_exp_3,4,28652,1,18,116,2,z,2,1688,653,cr,3,m,20,NA,NA,NA
EA_exp_3,4,28652,1,19,75,1,m,3,1123,689,hit,5,m,20,q,older,1
EA_exp_3,4,28652,1,20,40,1,m,4,1061,1205,hit,6,m,20,q,older,1
EA_exp_3,4,28652,1,21,108,2,z,2,1779,745,cr,3,m,20,NA,NA,NA
EA_exp_3,4,28652,1,22,37,1,m,3,1482,794,hit,5,m,20,p,younger,1
EA_exp_3,4,28652,1,23,89,1,m,4,1874,1242,hit,6,m,20,p,younger,1
EA_exp_3,4,28652,1,24,107,2,z,2,1706,543,cr,3,m,20,NA,NA,NA
EA_exp_3,4,28652,1,25,2,1,m,3,1225,931,hit,5,m,20,p,younger,1
EA_exp_3,4,28652,1,26,19,1,m,4,1251,645,hit,6,m,20,p,younger,1
EA_exp_3,4,28652,1,27,171,2,z,3,1390,576,cr,2,m,20,NA,NA,NA
EA_exp_3,4,28652,1,28,133,2,z,3,1450,538,cr,2,m,20,NA,NA,NA
EA_exp_3,4,28652,1,29,68,1,m,4,1091,532,hit,6,m,20,q,older,1
EA_exp_3,4,28652,1,30,28,1,m,4,1310,627,hit,6,m,20,p,younger,1
EA_exp_3,4,28652,1,31,5,1,m,4,957,640,hit,6,m,20,q,older,1
EA_exp_3,4,28652,1,32,174,2,z,3,1371,555,cr,2,m,20,NA,NA,NA
EA_exp_3,4,28652,1,33,153,2,z,3,1204,654,cr,2,m,20,NA,NA,NA
EA_exp_3,4,28652,1,34,65,1,m,3,2214,679,hit,5,m,20,p,younger,1
EA_exp_3,4,28652,1,35,32,1,m,2,3388,767,hit,4,m,20,q,older,1
EA_exp_3,4,28652,1,36,41,1,z,2,1505,463,miss,3,m,20,None,NA,1
EA_exp_3,4,28652,1,37,29,1,m,3,1277,530,hit,5,m,20,p,younger,1
EA_exp_3,4,28652,1,38,183,2,z,3,1441,606,cr,2,m,20,NA,NA,NA
EA_exp_3,4,28652,1,39,143,2,z,2,1895,454,cr,3,m,20,NA,NA,NA
EA_exp_3,4,28652,1,40,147,2,m,3,1028,646,fa,5,m,20,NA,NA,NA
EA_exp_3,4,28652,1,41,196,2,z,3,1327,545,cr,2,m,20,NA,NA,NA
EA_exp_3,4,28652,1,42,26,1,m,3,1260,980,hit,5,m,20,q,older,1
EA_exp_3,4,28652,1,43,161,2,z,3,1356,577,cr,2,m,20,NA,NA,NA
EA_exp_3,4,28652,1,44,200,2,z,2,1667,418,cr,3,m,20,NA,NA,NA
EA_exp_3,4,28652,1,45,76,1,m,2,2177,628,hit,4,m,20,q,older,1
EA_exp_3,4,28652,1,46,194,2,m,2,1759,370,fa,4,m,20,NA,NA,NA
EA_exp_3,4,28652,1,47,123,2,z,3,1169,735,cr,2,m,20,NA,NA,NA
EA_exp_3,4,28652,1,48,66,1,m,4,1121,557,hit,6,m,20,q,older,1
EA_exp_3,4,28652,1,49,70,1,m,4,823,642,hit,6,m,20,q,older,1
EA_exp_3,4,28652,1,50,192,2,z,3,1240,451,cr,2,m,20,NA,NA,NA
EA_exp_3,4,28652,1,51,17,1,m,3,1327,660,hit,5,m,20,None,NA,1
EA_exp_3,4,28652,1,52,119,2,z,3,1771,463,cr,2,m,20,NA,NA,NA
EA_exp_3,4,28652,1,53,135,2,z,2,1553,536,cr,3,m,20,NA,NA,NA
EA_exp_3,4,28652,1,54,49,1,m,4,1091,850,hit,6,m,20,p,younger,1
EA_exp_3,4,28652,1,55,8,1,m,3,1103,591,hit,5,m,20,p,younger,1
EA_exp_3,4,28652,1,56,88,1,m,3,1335,523,hit,5,m,20,q,older,1
EA_exp_3,4,28652,1,57,138,2,z,2,2120,446,cr,3,m,20,NA,NA,NA
EA_exp_3,4,28652,1,58,162,2,z,3,1563,440,cr,2,m,20,NA,NA,NA
EA_exp_3,4,28652,1,59,156,2,z,2,1595,368,cr,3,m,20,NA,NA,NA
EA_exp_3,4,28652,1,60,53,1,m,3,1329,521,hit,5,m,20,q,older,1
EA_exp_3,4,28652,1,61,185,2,m,1,2819,253,fa,4,m,20,NA,NA,NA
EA_exp_3,4,28652,1,62,101,2,z,3,2579,390,cr,2,m,20,NA,NA,NA
EA_exp_3,4,28652,1,63,90,1,m,4,1141,1172,hit,6,m,20,q,older,1
EA_exp_3,4,28652,1,64,102,2,m,2,1268,365,fa,4,m,20,NA,NA,NA
EA_exp_3,4,28652,1,65,120,2,m,2,1248,295,fa,4,m,20,NA,NA,NA
EA_exp_3,4,28652,1,66,13,1,m,3,1179,328,hit,5,m,20,p,younger,1
EA_exp_3,4,28652,1,67,118,2,z,3,1291,961,cr,2,m,20,NA,NA,NA
EA_exp_3,4,28652,1,68,83,1,m,3,1291,770,hit,5,m,20,q,older,1
EA_exp_3,4,28652,1,69,67,1,m,1,2660,1715,hit,4,m,20,p,younger,1
EA_exp_3,4,28652,1,70,198,2,m,2,1492,301,fa,4,m,20,NA,NA,NA
EA_exp_3,4,28652,1,71,141,2,z,2,2544,360,cr,3,m,20,NA,NA,NA
EA_exp_3,4,28652,1,72,43,1,m,3,1918,407,hit,5,m,20,q,older,1
EA_exp_3,4,28652,1,73,22,1,m,3,1782,490,hit,5,m,20,q,older,1
EA_exp_3,4,28652,1,74,113,2,z,3,2409,640,cr,2,m,20,NA,NA,NA
EA_exp_3,4,28652,1,75,50,1,m,4,1947,787,hit,6,m,20,q,older,1
EA_exp_3,4,28652,1,76,15,1,m,4,1365,488,hit,6,m,20,p,younger,1
EA_exp_3,4,28652,1,77,154,2,z,3,1623,606,cr,2,m,20,NA,NA,NA
EA_exp_3,4,28652,1,78,73,1,m,3,1286,637,hit,5,m,20,q,older,1
EA_exp_3,4,28652,1,79,35,1,m,2,1637,605,hit,4,m,20,q,older,1
EA_exp_3,4,28652,1,80,175,2,z,3,1797,488,cr,2,m,20,NA,NA,NA
EA_exp_3,4,28652,1,81,20,1,z,3,2165,522,miss,2,m,20,q,older,1
EA_exp_3,4,28652,1,82,64,1,z,3,4933,939,miss,2,m,20,q,older,1
EA_exp_3,4,28652,1,83,55,1,m,4,5557,1217,hit,6,m,20,q,older,1
EA_exp_3,4,28652,1,84,117,2,m,2,1585,508,fa,4,m,20,NA,NA,NA
EA_exp_3,4,28652,1,85,178,2,z,3,3079,660,cr,2,m,20,NA,NA,NA
EA_exp_3,4,28652,1,86,105,2,z,3,2141,419,cr,2,m,20,NA,NA,NA
EA_exp_3,4,28652,1,87,38,1,m,4,1263,346,hit,6,m,20,p,younger,1
EA_exp_3,4,28652,1,88,163,2,z,2,1594,1910,cr,3,m,20,NA,NA,NA
EA_exp_3,4,28652,1,89,99,1,m,4,1049,668,hit,6,m,20,p,younger,1
EA_exp_3,4,28652,1,90,146,2,z,2,1504,2046,cr,3,m,20,NA,NA,NA
EA_exp_3,4,28652,1,91,25,1,m,2,1190,280,hit,4,m,20,p,younger,1
EA_exp_3,4,28652,1,92,188,2,m,2,1501,267,fa,4,m,20,NA,NA,NA
EA_exp_3,4,28652,1,93,127,2,m,2,1553,237,fa,4,m,20,NA,NA,NA
EA_exp_3,4,28652,1,94,157,2,z,2,1742,345,cr,3,m,20,NA,NA,NA
EA_exp_3,4,28652,1,95,94,1,m,3,1395,222,hit,5,m,20,p,younger,1
EA_exp_3,4,28652,1,96,3,1,m,3,1062,452,hit,5,m,20,p,younger,1
EA_exp_3,4,28652,1,97,195,2,z,3,2150,1176,cr,2,m,20,NA,NA,NA
EA_exp_3,4,28652,1,98,182,2,z,3,1786,397,cr,2,m,20,NA,NA,NA
EA_exp_3,4,28652,1,99,30,1,m,3,1071,383,hit,5,m,20,p,younger,1
EA_exp_3,4,28652,1,100,184,2,m,2,1519,316,fa,4,m,20,NA,NA,NA
EA_exp_3,4,28652,1,101,106,2,z,3,1570,445,cr,2,m,20,NA,NA,NA
EA_exp_3,4,28652,1,102,148,2,z,3,1834,446,cr,2,m,20,NA,NA,NA
EA_exp_3,4,28652,1,103,109,2,m,2,1803,335,fa,4,m,20,NA,NA,NA
EA_exp_3,4,28652,1,104,140,2,z,3,1441,418,cr,2,m,20,NA,NA,NA
EA_exp_3,4,28652,1,105,191,2,z,2,2529,790,cr,3,m,20,NA,NA,NA
EA_exp_3,4,28652,1,106,173,2,m,2,1590,367,fa,4,m,20,NA,NA,NA
EA_exp_3,4,28652,1,107,145,2,z,2,1249,476,cr,3,m,20,NA,NA,NA
EA_exp_3,4,28652,1,108,110,2,z,2,1742,413,cr,3,m,20,NA,NA,NA
EA_exp_3,4,28652,1,109,144,2,m,2,1726,306,fa,4,m,20,NA,NA,NA
EA_exp_3,4,28652,1,110,151,2,z,3,1335,541,cr,2,m,20,NA,NA,NA
EA_exp_3,4,28652,1,111,34,1,m,4,1240,702,hit,6,m,20,p,younger,1
EA_exp_3,4,28652,1,112,164,2,z,2,1623,412,cr,3,m,20,NA,NA,NA
EA_exp_3,4,28652,1,113,51,1,z,2,1763,672,miss,3,m,20,q,older,1
EA_exp_3,4,28652,1,114,124,2,m,2,1029,663,fa,4,m,20,NA,NA,NA
EA_exp_3,4,28652,1,115,149,2,z,2,1821,526,cr,3,m,20,NA,NA,NA
EA_exp_3,4,28652,1,116,7,1,m,3,1199,468,hit,5,m,20,p,younger,1
EA_exp_3,4,28652,1,117,112,2,z,2,1617,348,cr,3,m,20,NA,NA,NA
EA_exp_3,4,28652,1,118,47,1,m,3,3441,272,hit,5,m,20,q,older,1
EA_exp_3,4,28652,1,119,125,2,z,3,1941,513,cr,2,m,20,NA,NA,NA
EA_exp_3,4,28652,1,120,74,1,m,4,1660,438,hit,6,m,20,q,older,1
EA_exp_3,4,28652,1,121,52,1,m,4,1061,404,hit,6,m,20,q,older,1
EA_exp_3,4,28652,1,122,103,2,z,3,1460,740,cr,2,m,20,NA,NA,NA
EA_exp_3,4,28652,1,123,129,2,z,3,2027,352,cr,2,m,20,NA,NA,NA
EA_exp_3,4,28652,1,124,179,2,z,2,1697,359,cr,3,m,20,NA,NA,NA
EA_exp_3,4,28652,1,125,1,1,z,2,1711,434,miss,3,m,20,q,older,1
EA_exp_3,4,28652,1,126,98,1,m,4,1344,387,hit,6,m,20,q,older,1
EA_exp_3,4,28652,1,127,31,1,m,3,1332,873,hit,5,m,20,p,younger,1
EA_exp_3,4,28652,1,128,91,1,m,4,1205,482,hit,6,m,20,p,younger,1
EA_exp_3,4,28652,1,129,12,1,m,4,1133,475,hit,6,m,20,q,older,1
EA_exp_3,4,28652,1,130,4,1,z,3,1385,443,miss,2,m,20,q,older,1
EA_exp_3,4,28652,1,131,177,2,z,3,1451,443,cr,2,m,20,NA,NA,NA
EA_exp_3,4,28652,1,132,72,1,m,2,1692,289,hit,4,m,20,q,older,1
EA_exp_3,4,28652,1,133,111,2,z,3,2789,1089,cr,2,m,20,NA,NA,NA
EA_exp_3,4,28652,1,134,48,1,m,2,1254,814,hit,4,m,20,q,older,1
EA_exp_3,4,28652,1,135,186,2,z,3,2369,554,cr,2,m,20,NA,NA,NA
EA_exp_3,4,28652,1,136,79,1,m,4,1157,447,hit,6,m,20,p,younger,1
EA_exp_3,4,28652,1,137,130,2,m,2,3391,865,fa,4,m,20,NA,NA,NA
EA_exp_3,4,28652,1,138,168,2,z,3,1374,418,cr,2,m,20,NA,NA,NA
EA_exp_3,4,28652,1,139,57,1,m,3,1203,507,hit,5,m,20,p,younger,1
EA_exp_3,4,28652,1,140,60,1,m,3,1222,484,hit,5,m,20,p,younger,1
EA_exp_3,4,28652,1,141,44,1,m,3,910,453,hit,5,m,20,p,younger,1
EA_exp_3,4,28652,1,142,9,1,m,4,995,516,hit,6,m,20,p,younger,1
EA_exp_3,4,28652,1,143,86,1,m,2,1458,321,hit,4,m,20,p,younger,1
EA_exp_3,4,28652,1,144,167,2,z,3,1698,410,cr,2,m,20,NA,NA,NA
EA_exp_3,4,28652,1,145,78,1,m,4,1247,405,hit,6,m,20,p,younger,1
EA_exp_3,4,28652,1,146,104,2,z,3,1284,538,cr,2,m,20,NA,NA,NA
EA_exp_3,4,28652,1,147,80,1,m,4,1239,608,hit,6,m,20,q,older,1
EA_exp_3,4,28652,1,148,21,1,z,2,1208,2051,miss,3,m,20,q,older,1
EA_exp_3,4,28652,1,149,128,2,z,3,1378,514,cr,2,m,20,NA,NA,NA
EA_exp_3,4,28652,1,150,187,2,z,3,1761,451,cr,2,m,20,NA,NA,NA
EA_exp_3,4,28652,1,151,39,1,m,3,1760,323,hit,5,m,20,p,younger,1
EA_exp_3,4,28652,1,152,142,2,z,3,1334,573,cr,2,m,20,NA,NA,NA
EA_exp_3,4,28652,1,153,126,2,z,3,1974,481,cr,2,m,20,NA,NA,NA
EA_exp_3,4,28652,1,154,45,1,z,2,2110,597,miss,3,m,20,q,older,1
EA_exp_3,4,28652,1,155,33,1,m,3,1500,378,hit,5,m,20,q,older,1
EA_exp_3,4,28652,1,156,87,1,m,3,942,370,hit,5,m,20,q,older,1
EA_exp_3,4,28652,1,157,95,1,m,3,866,363,hit,5,m,20,q,older,1
EA_exp_3,4,28652,1,158,63,1,m,3,1249,374,hit,5,m,20,q,older,1
EA_exp_3,4,28652,1,159,71,1,m,3,982,363,hit,5,m,20,q,older,1
EA_exp_3,4,28652,1,160,93,1,z,2,2913,865,miss,3,m,20,p,younger,1
EA_exp_3,4,28652,1,161,69,1,z,3,1465,418,miss,2,m,20,q,older,1
EA_exp_3,4,28652,1,162,58,1,m,4,1151,474,hit,6,m,20,q,older,1
EA_exp_3,4,28652,1,163,114,2,z,3,1685,416,cr,2,m,20,NA,NA,NA
EA_exp_3,4,28652,1,164,46,1,m,4,1136,445,hit,6,m,20,q,older,1
EA_exp_3,4,28652,1,165,100,1,m,4,1137,1560,hit,6,m,20,p,younger,1
EA_exp_3,4,28652,1,166,150,2,z,3,1724,464,cr,2,m,20,NA,NA,NA
EA_exp_3,4,28652,1,167,121,2,z,3,1517,427,cr,2,m,20,NA,NA,NA
EA_exp_3,4,28652,1,168,96,1,m,4,1995,390,hit,6,m,20,q,older,1
EA_exp_3,4,28652,1,169,160,2,z,3,1414,1017,cr,2,m,20,NA,NA,NA
EA_exp_3,4,28652,1,170,134,2,m,2,1874,368,fa,4,m,20,NA,NA,NA
EA_exp_3,4,28652,1,171,170,2,z,3,1759,2260,cr,2,m,20,NA,NA,NA
EA_exp_3,4,28652,1,172,10,1,m,3,1562,327,hit,5,m,20,p,younger,1
EA_exp_3,4,28652,1,173,84,1,m,3,875,431,hit,5,m,20,p,younger,1
EA_exp_3,4,28652,1,174,11,1,z,3,1409,481,miss,2,m,20,q,older,1
EA_exp_3,4,28652,1,175,190,2,z,3,1584,507,cr,2,m,20,NA,NA,NA
EA_exp_3,4,28652,1,176,155,2,z,3,2775,497,cr,2,m,20,NA,NA,NA
EA_exp_3,4,28652,1,177,27,1,m,2,1442,255,hit,4,m,20,q,older,1
EA_exp_3,4,28652,1,178,132,2,z,3,1381,408,cr,2,m,20,NA,NA,NA
EA_exp_3,4,28652,1,179,137,2,m,3,1931,454,fa,5,m,20,NA,NA,NA
EA_exp_3,4,28652,1,180,158,2,z,2,1507,323,cr,3,m,20,NA,NA,NA
EA_exp_3,4,28652,1,181,180,2,m,2,3158,226,fa,4,m,20,NA,NA,NA
EA_exp_3,4,28652,1,182,115,2,z,3,1467,1689,cr,2,m,20,NA,NA,NA
EA_exp_3,4,28652,1,183,197,2,z,2,2982,1992,cr,3,m,20,NA,NA,NA
EA_exp_3,4,28652,1,184,199,2,m,3,1384,1597,fa,5,m,20,NA,NA,NA
EA_exp_3,4,28652,1,185,59,1,m,3,1871,479,hit,5,m,20,p,younger,1
EA_exp_3,4,28652,1,186,152,2,z,2,1467,636,cr,3,m,20,NA,NA,NA
EA_exp_3,4,28652,1,187,62,1,m,3,1812,452,hit,5,m,20,None,NA,1
EA_exp_3,4,28652,1,188,61,1,m,4,1278,282,hit,6,m,20,p,younger,1
EA_exp_3,4,28652,1,189,176,2,z,3,1151,347,cr,2,m,20,NA,NA,NA
EA_exp_3,4,28652,1,190,23,1,m,4,1320,435,hit,6,m,20,q,older,1
EA_exp_3,4,28652,1,191,77,1,m,3,1361,247,hit,5,m,20,p,younger,1
EA_exp_3,4,28652,1,192,97,1,m,4,1196,265,hit,6,m,20,p,younger,1
EA_exp_3,4,28652,1,193,139,2,z,3,1293,2036,cr,2,m,20,NA,NA,NA
EA_exp_3,4,28652,1,194,85,1,m,3,1251,251,hit,5,m,20,q,older,1
EA_exp_3,4,28652,1,195,42,1,m,4,1202,316,hit,6,m,20,q,older,1
EA_exp_3,4,28652,1,196,18,1,m,3,1632,264,hit,5,m,20,p,younger,1
EA_exp_3,4,28652,1,197,14,1,m,3,1425,240,hit,5,m,20,q,older,1
EA_exp_3,4,28652,1,198,56,1,m,3,1268,240,hit,5,m,20,q,older,1
EA_exp_3,4,28652,1,199,54,1,z,3,1548,370,miss,2,m,20,q,older,1
EA_exp_3,4,28652,1,200,82,1,m,3,1187,286,hit,5,m,20,q,older,1
EA_exp_3,5,28651,1,1,148,2,z,2,4174,2107,cr,3,f,18,NA,NA,NA
EA_exp_3,5,28651,1,2,71,1,m,4,2025,3407,hit,6,f,18,q,older,1
EA_exp_3,5,28651,1,3,103,2,m,2,3224,1810,fa,4,f,18,NA,NA,NA
EA_exp_3,5,28651,1,4,155,2,z,4,1803,476,cr,1,f,18,NA,NA,NA
EA_exp_3,5,28651,1,5,152,2,m,2,3517,737,fa,4,f,18,NA,NA,NA
EA_exp_3,5,28651,1,6,91,1,m,4,1673,530,hit,6,f,18,p,younger,1
EA_exp_3,5,28651,1,7,177,2,z,4,1661,565,cr,1,f,18,NA,NA,NA
EA_exp_3,5,28651,1,8,97,1,m,4,1490,431,hit,6,f,18,p,younger,1
EA_exp_3,5,28651,1,9,194,2,z,3,2065,774,cr,2,f,18,NA,NA,NA
EA_exp_3,5,28651,1,10,124,2,z,2,2648,568,cr,3,f,18,NA,NA,NA
EA_exp_3,5,28651,1,11,16,1,m,4,1489,447,hit,6,f,18,p,younger,1
EA_exp_3,5,28651,1,12,185,2,z,2,1772,322,cr,3,f,18,NA,NA,NA
EA_exp_3,5,28651,1,13,11,1,m,4,1318,331,hit,6,f,18,q,older,1
EA_exp_3,5,28651,1,14,5,1,m,4,955,370,hit,6,f,18,q,older,1
EA_exp_3,5,28651,1,15,79,1,m,4,690,385,hit,6,f,18,p,younger,1
EA_exp_3,5,28651,1,16,92,1,m,4,693,337,hit,6,f,18,p,younger,1
EA_exp_3,5,28651,1,17,1,1,m,4,1094,403,hit,6,f,18,q,older,1
EA_exp_3,5,28651,1,18,196,2,z,3,2372,1902,cr,2,f,18,NA,NA,NA
EA_exp_3,5,28651,1,19,18,1,m,2,3125,239,hit,4,f,18,None,NA,1
EA_exp_3,5,28651,1,20,150,2,z,2,3079,343,cr,3,f,18,NA,NA,NA
EA_exp_3,5,28651,1,21,13,1,m,4,3339,303,hit,6,f,18,q,older,1
EA_exp_3,5,28651,1,22,175,2,z,2,1534,990,cr,3,f,18,NA,NA,NA
EA_exp_3,5,28651,1,23,156,2,z,3,1352,556,cr,2,f,18,NA,NA,NA
EA_exp_3,5,28651,1,24,68,1,m,4,1430,231,hit,6,f,18,q,older,1
EA_exp_3,5,28651,1,25,38,1,z,3,1456,879,miss,2,f,18,p,younger,1
EA_exp_3,5,28651,1,26,45,1,m,4,1258,229,hit,6,f,18,p,younger,1
EA_exp_3,5,28651,1,27,161,2,z,4,1325,273,cr,1,f,18,NA,NA,NA
EA_exp_3,5,28651,1,28,21,1,m,4,1257,255,hit,6,f,18,q,older,1
EA_exp_3,5,28651,1,29,114,2,m,4,2181,216,fa,6,f,18,NA,NA,NA
EA_exp_3,5,28651,1,30,29,1,m,4,865,184,hit,6,f,18,p,younger,1
EA_exp_3,5,28651,1,31,84,1,m,4,1392,179,hit,6,f,18,q,older,1
EA_exp_3,5,28651,1,32,127,2,z,3,1653,324,cr,2,f,18,NA,NA,NA
EA_exp_3,5,28651,1,33,3,1,m,4,2842,176,hit,6,f,18,p,younger,1
EA_exp_3,5,28651,1,34,188,2,m,4,2074,161,fa,6,f,18,NA,NA,NA
EA_exp_3,5,28651,1,35,67,1,m,4,1801,222,hit,6,f,18,p,younger,1
EA_exp_3,5,28651,1,36,170,2,z,3,1592,207,cr,2,f,18,NA,NA,NA
EA_exp_3,5,28651,1,37,56,1,m,4,1402,170,hit,6,f,18,p,younger,1
EA_exp_3,5,28651,1,38,90,1,m,4,806,192,hit,6,f,18,q,older,1
EA_exp_3,5,28651,1,39,23,1,z,4,2039,447,miss,1,f,18,q,older,1
EA_exp_3,5,28651,1,40,88,1,m,4,1424,223,hit,6,f,18,p,younger,1
EA_exp_3,5,28651,1,41,37,1,z,3,2373,292,miss,2,f,18,p,younger,1
EA_exp_3,5,28651,1,42,93,1,m,4,930,268,hit,6,f,18,p,younger,1
EA_exp_3,5,28651,1,43,36,1,m,4,1299,201,hit,6,f,18,p,younger,1
EA_exp_3,5,28651,1,44,22,1,m,4,1614,187,hit,6,f,18,q,older,1
EA_exp_3,5,28651,1,45,128,2,z,3,3745,264,cr,2,f,18,NA,NA,NA
EA_exp_3,5,28651,1,46,186,2,z,2,3966,137,cr,3,f,18,NA,NA,NA
EA_exp_3,5,28651,1,47,74,1,m,4,1638,206,hit,6,f,18,q,older,1
EA_exp_3,5,28651,1,48,12,1,z,3,1577,1836,miss,2,f,18,q,older,1
EA_exp_3,5,28651,1,49,122,2,m,4,3762,252,fa,6,f,18,NA,NA,NA
EA_exp_3,5,28651,1,50,39,1,z,1,3510,369,miss,3,f,18,p,younger,1
EA_exp_3,5,28651,1,51,112,2,z,4,3491,353,cr,1,f,18,NA,NA,NA
EA_exp_3,5,28651,1,52,172,2,z,3,1456,322,cr,2,f,18,NA,NA,NA
EA_exp_3,5,28651,1,53,173,2,z,4,774,657,cr,1,f,18,NA,NA,NA
EA_exp_3,5,28651,1,54,85,1,m,2,2646,504,hit,4,f,18,q,older,1
EA_exp_3,5,28651,1,55,25,1,m,2,3095,211,hit,4,f,18,q,older,1
EA_exp_3,5,28651,1,56,147,2,z,4,1342,287,cr,1,f,18,NA,NA,NA
EA_exp_3,5,28651,1,57,115,2,z,4,903,282,cr,1,f,18,NA,NA,NA
EA_exp_3,5,28651,1,58,102,2,z,4,878,294,cr,1,f,18,NA,NA,NA
EA_exp_3,5,28651,1,59,105,2,z,4,812,213,cr,1,f,18,NA,NA,NA
EA_exp_3,5,28651,1,60,31,1,m,4,2238,207,hit,6,f,18,p,younger,1
EA_exp_3,5,28651,1,61,57,1,z,2,1832,520,miss,3,f,18,p,younger,1
EA_exp_3,5,28651,1,62,199,2,z,1,2338,288,cr,3,f,18,NA,NA,NA
EA_exp_3,5,28651,1,63,34,1,m,4,1474,212,hit,6,f,18,q,older,1
EA_exp_3,5,28651,1,64,109,2,z,4,1182,343,cr,1,f,18,NA,NA,NA
EA_exp_3,5,28651,1,65,65,1,m,4,1259,226,hit,6,f,18,p,younger,1
EA_exp_3,5,28651,1,66,149,2,z,3,3133,406,cr,2,f,18,NA,NA,NA
EA_exp_3,5,28651,1,67,143,2,z,4,1430,471,cr,1,f,18,NA,NA,NA
EA_exp_3,5,28651,1,68,153,2,z,3,1057,452,cr,2,f,18,NA,NA,NA
EA_exp_3,5,28651,1,69,160,2,z,4,1173,351,cr,1,f,18,NA,NA,NA
EA_exp_3,5,28651,1,70,129,2,z,2,1680,360,cr,3,f,18,NA,NA,NA
EA_exp_3,5,28651,1,71,133,2,z,3,3610,196,cr,2,f,18,NA,NA,NA
EA_exp_3,5,28651,1,72,137,2,z,2,1308,275,cr,3,f,18,NA,NA,NA
EA_exp_3,5,28651,1,73,168,2,z,2,1226,849,cr,3,f,18,NA,NA,NA
EA_exp_3,5,28651,1,74,138,2,z,3,1795,436,cr,2,f,18,NA,NA,NA
EA_exp_3,5,28651,1,75,15,1,m,4,2004,220,hit,6,f,18,p,younger,1
EA_exp_3,5,28651,1,76,81,1,z,2,1700,346,miss,3,f,18,q,older,1
EA_exp_3,5,28651,1,77,76,1,z,3,2315,187,miss,2,f,18,q,older,1
EA_exp_3,5,28651,1,78,110,2,z,4,2484,298,cr,1,f,18,NA,NA,NA
EA_exp_3,5,28651,1,79,2,1,m,3,2064,1384,hit,5,f,18,p,younger,1
EA_exp_3,5,28651,1,80,157,2,z,4,2429,297,cr,1,f,18,NA,NA,NA
EA_exp_3,5,28651,1,81,99,1,m,2,3758,546,hit,4,f,18,p,younger,1
EA_exp_3,5,28651,1,82,132,2,z,2,3320,450,cr,3,f,18,NA,NA,NA
EA_exp_3,5,28651,1,83,49,1,m,4,1572,236,hit,6,f,18,q,older,1
EA_exp_3,5,28651,1,84,142,2,z,3,1332,392,cr,2,f,18,NA,NA,NA
EA_exp_3,5,28651,1,85,169,2,z,4,1465,217,cr,1,f,18,NA,NA,NA
EA_exp_3,5,28651,1,86,179,2,z,4,865,312,cr,1,f,18,NA,NA,NA
EA_exp_3,5,28651,1,87,181,2,z,4,893,291,cr,1,f,18,NA,NA,NA
EA_exp_3,5,28651,1,88,184,2,m,2,2775,482,fa,4,f,18,NA,NA,NA
EA_exp_3,5,28651,1,89,200,2,z,3,2367,363,cr,2,f,18,NA,NA,NA
EA_exp_3,5,28651,1,90,50,1,m,4,1326,259,hit,6,f,18,p,younger,1
EA_exp_3,5,28651,1,91,117,2,z,3,1833,170,cr,2,f,18,NA,NA,NA
EA_exp_3,5,28651,1,92,118,2,z,2,1299,266,cr,3,f,18,NA,NA,NA
EA_exp_3,5,28651,1,93,171,2,z,1,2961,436,cr,3,f,18,NA,NA,NA
EA_exp_3,5,28651,1,94,95,1,m,4,1414,181,hit,6,f,18,q,older,1
EA_exp_3,5,28651,1,95,108,2,z,2,2334,203,cr,3,f,18,NA,NA,NA
EA_exp_3,5,28651,1,96,107,2,z,3,1314,1129,cr,2,f,18,NA,NA,NA
EA_exp_3,5,28651,1,97,146,2,z,3,875,388,cr,2,f,18,NA,NA,NA
EA_exp_3,5,28651,1,98,121,2,z,3,676,372,cr,2,f,18,NA,NA,NA
EA_exp_3,5,28651,1,99,63,1,m,2,2010,544,hit,4,f,18,q,older,1
EA_exp_3,5,28651,1,100,116,2,z,3,1418,156,cr,2,f,18,NA,NA,NA
EA_exp_3,5,28651,1,101,197,2,z,2,1383,265,cr,3,f,18,NA,NA,NA
EA_exp_3,5,28651,1,102,6,1,m,3,2497,390,hit,5,f,18,q,older,1
EA_exp_3,5,28651,1,103,165,2,z,2,935,396,cr,3,f,18,NA,NA,NA
EA_exp_3,5,28651,1,104,141,2,z,4,827,582,cr,1,f,18,NA,NA,NA
EA_exp_3,5,28651,1,105,69,1,m,4,1327,181,hit,6,f,18,q,older,1
EA_exp_3,5,28651,1,106,14,1,m,4,1390,209,hit,6,f,18,q,older,1
EA_exp_3,5,28651,1,107,4,1,z,4,1223,210,miss,1,f,18,q,older,1
EA_exp_3,5,28651,1,108,41,1,m,4,1276,130,hit,6,f,18,q,older,1
EA_exp_3,5,28651,1,109,26,1,m,4,1707,227,hit,6,f,18,p,younger,1
EA_exp_3,5,28651,1,110,55,1,z,1,1643,1043,miss,3,f,18,p,younger,1
EA_exp_3,5,28651,1,111,134,2,z,2,2045,179,cr,3,f,18,NA,NA,NA
EA_exp_3,5,28651,1,112,182,2,z,3,1421,909,cr,2,f,18,NA,NA,NA
EA_exp_3,5,28651,1,113,7,1,z,2,1255,161,miss,3,f,18,None,NA,1
EA_exp_3,5,28651,1,114,140,2,z,2,987,287,cr,3,f,18,NA,NA,NA
EA_exp_3,5,28651,1,115,51,1,m,4,1636,237,hit,6,f,18,p,younger,1
EA_exp_3,5,28651,1,116,158,2,z,4,3315,218,cr,1,f,18,NA,NA,NA
EA_exp_3,5,28651,1,117,195,2,z,4,1277,216,cr,1,f,18,NA,NA,NA
EA_exp_3,5,28651,1,118,120,2,z,4,1089,240,cr,1,f,18,NA,NA,NA
EA_exp_3,5,28651,1,119,187,2,z,3,838,255,cr,2,f,18,NA,NA,NA
EA_exp_3,5,28651,1,120,162,2,z,4,1575,241,cr,1,f,18,NA,NA,NA
EA_exp_3,5,28651,1,121,106,2,z,4,697,261,cr,1,f,18,NA,NA,NA
EA_exp_3,5,28651,1,122,33,1,m,3,2363,200,hit,5,f,18,q,older,1
EA_exp_3,5,28651,1,123,189,2,z,4,1107,271,cr,1,f,18,NA,NA,NA
EA_exp_3,5,28651,1,124,130,2,z,4,645,260,cr,1,f,18,NA,NA,NA
EA_exp_3,5,28651,1,125,131,2,z,2,9756,191,cr,3,f,18,NA,NA,NA
EA_exp_3,5,28651,1,126,98,1,m,4,1512,294,hit,6,f,18,q,older,1
EA_exp_3,5,28651,1,127,198,2,z,4,1547,215,cr,1,f,18,NA,NA,NA
EA_exp_3,5,28651,1,128,111,2,z,3,1089,189,cr,2,f,18,NA,NA,NA
EA_exp_3,5,28651,1,129,125,2,m,1,3145,164,fa,4,f,18,NA,NA,NA
EA_exp_3,5,28651,1,130,145,2,z,2,1606,359,cr,3,f,18,NA,NA,NA
EA_exp_3,5,28651,1,131,113,2,z,3,4524,272,cr,2,f,18,NA,NA,NA
EA_exp_3,5,28651,1,132,80,1,m,4,6022,335,hit,6,f,18,p,younger,1
EA_exp_3,5,28651,1,133,178,2,z,4,1397,243,cr,1,f,18,NA,NA,NA
EA_exp_3,5,28651,1,134,27,1,m,2,2399,293,hit,4,f,18,q,older,1
EA_exp_3,5,28651,1,135,40,1,m,4,1227,340,hit,6,f,18,q,older,1
EA_exp_3,5,28651,1,136,135,2,z,4,1349,331,cr,1,f,18,NA,NA,NA
EA_exp_3,5,28651,1,137,164,2,z,4,861,247,cr,1,f,18,NA,NA,NA
EA_exp_3,5,28651,1,138,193,2,z,4,749,266,cr,1,f,18,NA,NA,NA
EA_exp_3,5,28651,1,139,126,2,z,4,587,242,cr,1,f,18,NA,NA,NA
EA_exp_3,5,28651,1,140,44,1,m,4,1447,185,hit,6,f,18,p,younger,1
EA_exp_3,5,28651,1,141,17,1,m,4,1570,191,hit,6,f,18,p,younger,1
EA_exp_3,5,28651,1,142,52,1,z,3,1161,306,miss,2,f,18,q,older,1
EA_exp_3,5,28651,1,143,20,1,z,3,619,217,miss,2,f,18,q,older,1
EA_exp_3,5,28651,1,144,48,1,z,4,849,217,miss,1,f,18,q,older,1
EA_exp_3,5,28651,1,145,174,2,z,4,1250,249,cr,1,f,18,NA,NA,NA
EA_exp_3,5,28651,1,146,94,1,m,4,1630,185,hit,6,f,18,p,younger,1
EA_exp_3,5,28651,1,147,77,1,m,4,1372,117,hit,6,f,18,p,younger,1
EA_exp_3,5,28651,1,148,59,1,m,4,1043,113,hit,6,f,18,p,younger,1
EA_exp_3,5,28651,1,149,136,2,z,4,1259,213,cr,1,f,18,NA,NA,NA
EA_exp_3,5,28651,1,150,43,1,m,4,1229,102,hit,6,f,18,q,older,1
EA_exp_3,5,28651,1,151,42,1,z,4,1042,212,miss,1,f,18,q,older,1
EA_exp_3,5,28651,1,152,96,1,z,4,958,384,miss,1,f,18,None,NA,1
EA_exp_3,5,28651,1,153,82,1,m,4,2322,174,hit,6,f,18,q,older,1
EA_exp_3,5,28651,1,154,72,1,z,4,1592,178,miss,1,f,18,q,older,1
EA_exp_3,5,28651,1,155,104,2,z,4,6317,137,cr,1,f,18,NA,NA,NA
EA_exp_3,5,28651,1,156,73,1,m,4,2404,160,hit,6,f,18,q,older,1
EA_exp_3,5,28651,1,157,53,1,m,4,1161,148,hit,6,f,18,p,younger,1
EA_exp_3,5,28651,1,158,10,1,m,4,2432,233,hit,6,f,18,p,younger,1
EA_exp_3,5,28651,1,159,176,2,z,4,1187,203,cr,1,f,18,NA,NA,NA
EA_exp_3,5,28651,1,160,78,1,m,4,1637,173,hit,6,f,18,p,younger,1
EA_exp_3,5,28651,1,161,60,1,m,4,1715,141,hit,6,f,18,p,younger,1
EA_exp_3,5,28651,1,162,62,1,m,4,683,199,hit,6,f,18,p,younger,1
EA_exp_3,5,28651,1,163,159,2,z,4,1408,465,cr,1,f,18,NA,NA,NA
EA_exp_3,5,28651,1,164,86,1,z,2,1253,215,miss,3,f,18,p,younger,1
EA_exp_3,5,28651,1,165,61,1,z,3,1519,189,miss,2,f,18,p,younger,1
EA_exp_3,5,28651,1,166,167,2,z,2,855,238,cr,3,f,18,NA,NA,NA
EA_exp_3,5,28651,1,167,70,1,m,4,1572,160,hit,6,f,18,q,older,1
EA_exp_3,5,28651,1,168,46,1,z,4,1515,136,miss,1,f,18,p,younger,1
EA_exp_3,5,28651,1,169,144,2,z,3,3142,127,cr,2,f,18,NA,NA,NA
EA_exp_3,5,28651,1,170,35,1,m,2,3866,298,hit,4,f,18,p,younger,1
EA_exp_3,5,28651,1,171,64,1,m,4,1296,327,hit,6,f,18,q,older,1
EA_exp_3,5,28651,1,172,47,1,z,2,1581,661,miss,3,f,18,p,younger,1
EA_exp_3,5,28651,1,173,83,1,m,4,1710,241,hit,6,f,18,q,older,1
EA_exp_3,5,28651,1,174,54,1,z,2,1800,170,miss,3,f,18,p,younger,1
EA_exp_3,5,28651,1,175,183,2,z,2,754,191,cr,3,f,18,NA,NA,NA
EA_exp_3,5,28651,1,176,119,2,z,2,730,245,cr,3,f,18,NA,NA,NA
EA_exp_3,5,28651,1,177,190,2,z,3,830,230,cr,2,f,18,NA,NA,NA
EA_exp_3,5,28651,1,178,9,1,z,4,1261,852,miss,1,f,18,p,younger,1
EA_exp_3,5,28651,1,179,58,1,m,4,1190,174,hit,6,f,18,p,younger,1
EA_exp_3,5,28651,1,180,19,1,z,2,2040,384,miss,3,f,18,p,younger,1
EA_exp_3,5,28651,1,181,166,2,z,4,938,709,cr,1,f,18,NA,NA,NA
EA_exp_3,5,28651,1,182,139,2,z,4,492,208,cr,1,f,18,NA,NA,NA
EA_exp_3,5,28651,1,183,151,2,z,4,474,255,cr,1,f,18,NA,NA,NA
EA_exp_3,5,28651,1,184,87,1,z,4,1112,179,miss,1,f,18,q,older,1
EA_exp_3,5,28651,1,185,89,1,m,3,2589,463,hit,5,f,18,p,younger,1
EA_exp_3,5,28651,1,186,32,1,z,4,1006,223,miss,1,f,18,q,older,1
EA_exp_3,5,28651,1,187,191,2,z,4,611,200,cr,1,f,18,NA,NA,NA
EA_exp_3,5,28651,1,188,100,1,z,4,994,179,miss,1,f,18,p,younger,1
EA_exp_3,5,28651,1,189,101,2,z,4,588,190,cr,1,f,18,NA,NA,NA
EA_exp_3,5,28651,1,190,154,2,z,4,571,189,cr,1,f,18,NA,NA,NA
EA_exp_3,5,28651,1,191,180,2,z,4,741,258,cr,1,f,18,NA,NA,NA
EA_exp_3,5,28651,1,192,24,1,z,4,488,319,miss,1,f,18,q,older,1
EA_exp_3,5,28651,1,193,8,1,m,2,4530,167,hit,4,f,18,p,younger,1
EA_exp_3,5,28651,1,194,28,1,m,4,1361,213,hit,6,f,18,p,younger,1
EA_exp_3,5,28651,1,195,163,2,z,3,3053,206,cr,2,f,18,NA,NA,NA
EA_exp_3,5,28651,1,196,192,2,z,3,1560,145,cr,2,f,18,NA,NA,NA
EA_exp_3,5,28651,1,197,75,1,z,3,474,180,miss,2,f,18,q,older,1
EA_exp_3,5,28651,1,198,66,1,m,3,1830,734,hit,5,f,18,q,older,1
EA_exp_3,5,28651,1,199,30,1,z,3,785,172,miss,2,f,18,p,younger,1
EA_exp_3,5,28651,1,200,123,2,z,3,712,211,cr,2,f,18,NA,NA,NA
EA_exp_3,6,28650,1,1,17,1,m,4,1864,1811,hit,6,m,23,q,older,1
EA_exp_3,6,28650,1,2,56,1,m,4,2042,1091,hit,6,m,23,p,younger,1
EA_exp_3,6,28650,1,3,55,1,m,3,3259,1232,hit,5,m,23,q,older,1
EA_exp_3,6,28650,1,4,193,2,m,2,3087,1231,fa,4,m,23,NA,NA,NA
EA_exp_3,6,28650,1,5,47,1,m,4,1038,491,hit,6,m,23,q,older,1
EA_exp_3,6,28650,1,6,126,2,z,2,2334,1498,cr,3,m,23,NA,NA,NA
EA_exp_3,6,28650,1,7,26,1,m,3,2556,450,hit,5,m,23,q,older,1
EA_exp_3,6,28650,1,8,165,2,z,3,1866,527,cr,2,m,23,NA,NA,NA
EA_exp_3,6,28650,1,9,128,2,z,2,2149,495,cr,3,m,23,NA,NA,NA
EA_exp_3,6,28650,1,10,180,2,m,3,2206,526,fa,5,m,23,NA,NA,NA
EA_exp_3,6,28650,1,11,41,1,z,3,1464,553,miss,2,m,23,q,older,1
EA_exp_3,6,28650,1,12,30,1,m,4,1510,722,hit,6,m,23,q,older,1
EA_exp_3,6,28650,1,13,151,2,z,2,1685,492,cr,3,m,23,NA,NA,NA
EA_exp_3,6,28650,1,14,176,2,z,3,1466,426,cr,2,m,23,NA,NA,NA
EA_exp_3,6,28650,1,15,22,1,m,4,1305,671,hit,6,m,23,q,older,1
EA_exp_3,6,28650,1,16,129,2,z,3,1301,539,cr,2,m,23,NA,NA,NA
EA_exp_3,6,28650,1,17,9,1,m,2,1268,526,hit,4,m,23,q,older,1
EA_exp_3,6,28650,1,18,84,1,m,4,1196,419,hit,6,m,23,p,younger,1
EA_exp_3,6,28650,1,19,67,1,z,2,1683,426,miss,3,m,23,p,younger,1
EA_exp_3,6,28650,1,20,2,1,m,4,1082,329,hit,6,m,23,q,older,1
EA_exp_3,6,28650,1,21,159,2,m,1,1225,1718,fa,4,m,23,NA,NA,NA
EA_exp_3,6,28650,1,22,177,2,m,2,1988,1148,fa,4,m,23,NA,NA,NA
EA_exp_3,6,28650,1,23,143,2,z,3,1375,690,cr,2,m,23,NA,NA,NA
EA_exp_3,6,28650,1,24,49,1,m,4,1046,264,hit,6,m,23,p,younger,1
EA_exp_3,6,28650,1,25,20,1,m,4,1407,239,hit,6,m,23,q,older,1
EA_exp_3,6,28650,1,26,146,2,z,2,1768,1690,cr,3,m,23,NA,NA,NA
EA_exp_3,6,28650,1,27,64,1,m,4,1333,333,hit,6,m,23,q,older,1
EA_exp_3,6,28650,1,28,16,1,m,4,914,278,hit,6,m,23,p,younger,1
EA_exp_3,6,28650,1,29,156,2,m,4,743,471,fa,6,m,23,NA,NA,NA
EA_exp_3,6,28650,1,30,87,1,z,2,1784,488,miss,3,m,23,q,older,1
EA_exp_3,6,28650,1,31,101,2,z,2,1318,379,cr,3,m,23,NA,NA,NA
EA_exp_3,6,28650,1,32,166,2,z,3,1229,406,cr,2,m,23,NA,NA,NA
EA_exp_3,6,28650,1,33,119,2,z,2,1094,324,cr,3,m,23,NA,NA,NA
EA_exp_3,6,28650,1,34,110,2,z,4,1067,2311,cr,1,m,23,NA,NA,NA
EA_exp_3,6,28650,1,35,107,2,m,2,1451,284,fa,4,m,23,NA,NA,NA
EA_exp_3,6,28650,1,36,4,1,m,4,1093,304,hit,6,m,23,q,older,1
EA_exp_3,6,28650,1,37,181,2,m,4,916,266,fa,6,m,23,NA,NA,NA
EA_exp_3,6,28650,1,38,103,2,z,2,1537,253,cr,3,m,23,NA,NA,NA
EA_exp_3,6,28650,1,39,35,1,m,4,1316,265,hit,6,m,23,q,older,1
EA_exp_3,6,28650,1,40,8,1,m,4,1518,189,hit,6,m,23,q,older,1
EA_exp_3,6,28650,1,41,178,2,m,2,2293,404,fa,4,m,23,NA,NA,NA
EA_exp_3,6,28650,1,42,134,2,z,2,1796,311,cr,3,m,23,NA,NA,NA
EA_exp_3,6,28650,1,43,44,1,m,4,940,256,hit,6,m,23,p,younger,1
EA_exp_3,6,28650,1,44,130,2,z,3,1622,335,cr,2,m,23,NA,NA,NA
EA_exp_3,6,28650,1,45,112,2,z,2,1090,273,cr,3,m,23,NA,NA,NA
EA_exp_3,6,28650,1,46,160,2,z,4,1591,369,cr,1,m,23,NA,NA,NA
EA_exp_3,6,28650,1,47,186,2,m,4,1315,232,fa,6,m,23,NA,NA,NA
EA_exp_3,6,28650,1,48,104,2,z,4,1343,501,cr,1,m,23,NA,NA,NA
EA_exp_3,6,28650,1,49,18,1,m,4,1123,206,hit,6,m,23,p,younger,1
EA_exp_3,6,28650,1,50,153,2,z,3,1223,319,cr,2,m,23,NA,NA,NA
EA_exp_3,6,28650,1,51,152,2,z,3,1029,436,cr,2,m,23,NA,NA,NA
EA_exp_3,6,28650,1,52,70,1,m,4,900,345,hit,6,m,23,q,older,1
EA_exp_3,6,28650,1,53,99,1,m,4,827,438,hit,6,m,23,p,younger,1
EA_exp_3,6,28650,1,54,33,1,z,4,1125,466,miss,1,m,23,q,older,1
EA_exp_3,6,28650,1,55,3,1,m,4,893,229,hit,6,m,23,p,younger,1
EA_exp_3,6,28650,1,56,12,1,m,4,1023,207,hit,6,m,23,q,older,1
EA_exp_3,6,28650,1,57,95,1,m,4,774,211,hit,6,m,23,q,older,1
EA_exp_3,6,28650,1,58,61,1,m,2,1479,298,hit,4,m,23,p,younger,1
EA_exp_3,6,28650,1,59,192,2,m,2,1071,303,fa,4,m,23,NA,NA,NA
EA_exp_3,6,28650,1,60,172,2,m,2,869,219,fa,4,m,23,NA,NA,NA
EA_exp_3,6,28650,1,61,85,1,z,2,2544,310,miss,3,m,23,q,older,1
EA_exp_3,6,28650,1,62,162,2,z,3,1898,682,cr,2,m,23,NA,NA,NA
EA_exp_3,6,28650,1,63,197,2,m,4,960,643,fa,6,m,23,NA,NA,NA
EA_exp_3,6,28650,1,64,86,1,m,4,667,153,hit,6,m,23,q,older,1
EA_exp_3,6,28650,1,65,14,1,m,4,1363,599,hit,6,m,23,q,older,1
EA_exp_3,6,28650,1,66,50,1,z,3,1315,310,miss,2,m,23,q,older,1
EA_exp_3,6,28650,1,67,163,2,z,3,1433,347,cr,2,m,23,NA,NA,NA
EA_exp_3,6,28650,1,68,54,1,m,4,3328,579,hit,6,m,23,q,older,1
EA_exp_3,6,28650,1,69,10,1,m,4,871,101,hit,6,m,23,q,older,1
EA_exp_3,6,28650,1,70,97,1,z,3,1539,477,miss,2,m,23,p,younger,1
EA_exp_3,6,28650,1,71,21,1,m,4,974,142,hit,6,m,23,q,older,1
EA_exp_3,6,28650,1,72,196,2,z,4,1133,262,cr,1,m,23,NA,NA,NA
EA_exp_3,6,28650,1,73,39,1,m,4,1005,286,hit,6,m,23,p,younger,1
EA_exp_3,6,28650,1,74,83,1,m,4,960,184,hit,6,m,23,q,older,1
EA_exp_3,6,28650,1,75,96,1,m,4,675,143,hit,6,m,23,q,older,1
EA_exp_3,6,28650,1,76,106,2,z,2,2410,292,cr,3,m,23,NA,NA,NA
EA_exp_3,6,28650,1,77,82,1,m,4,1256,144,hit,6,m,23,q,older,1
EA_exp_3,6,28650,1,78,37,1,m,4,716,105,hit,6,m,23,p,younger,1
EA_exp_3,6,28650,1,79,105,2,z,4,1353,362,cr,1,m,23,NA,NA,NA
EA_exp_3,6,28650,1,80,171,2,z,4,1167,344,cr,1,m,23,NA,NA,NA
EA_exp_3,6,28650,1,81,125,2,z,4,2750,695,cr,1,m,23,NA,NA,NA
EA_exp_3,6,28650,1,82,139,2,z,4,927,256,cr,1,m,23,NA,NA,NA
EA_exp_3,6,28650,1,83,195,2,z,4,1239,240,cr,1,m,23,NA,NA,NA
EA_exp_3,6,28650,1,84,124,2,m,3,1290,190,fa,5,m,23,NA,NA,NA
EA_exp_3,6,28650,1,85,190,2,z,3,1370,202,cr,2,m,23,NA,NA,NA
EA_exp_3,6,28650,1,86,5,1,m,3,1174,175,hit,5,m,23,q,older,1
EA_exp_3,6,28650,1,87,173,2,z,3,988,172,cr,2,m,23,NA,NA,NA
EA_exp_3,6,28650,1,88,80,1,m,4,1139,162,hit,6,m,23,p,younger,1
EA_exp_3,6,28650,1,89,118,2,z,2,1132,377,cr,3,m,23,NA,NA,NA
EA_exp_3,6,28650,1,90,93,1,m,4,955,191,hit,6,m,23,p,younger,1
EA_exp_3,6,28650,1,91,111,2,z,2,1724,237,cr,3,m,23,NA,NA,NA
EA_exp_3,6,28650,1,92,116,2,z,2,945,761,cr,3,m,23,NA,NA,NA
EA_exp_3,6,28650,1,93,32,1,m,4,1113,216,hit,6,m,23,q,older,1
EA_exp_3,6,28650,1,94,123,2,z,4,1233,617,cr,1,m,23,NA,NA,NA
EA_exp_3,6,28650,1,95,141,2,z,4,2128,166,cr,1,m,23,NA,NA,NA
EA_exp_3,6,28650,1,96,40,1,m,2,1603,203,hit,4,m,23,q,older,1
EA_exp_3,6,28650,1,97,75,1,z,2,1477,178,miss,3,m,23,q,older,1
EA_exp_3,6,28650,1,98,78,1,m,4,989,175,hit,6,m,23,p,younger,1
EA_exp_3,6,28650,1,99,36,1,m,4,924,142,hit,6,m,23,p,younger,1
EA_exp_3,6,28650,1,100,137,2,z,3,1482,200,cr,2,m,23,NA,NA,NA
EA_exp_3,6,28650,1,101,31,1,m,4,948,133,hit,6,m,23,q,older,1
EA_exp_3,6,28650,1,102,57,1,z,3,1331,597,miss,2,m,23,p,younger,1
EA_exp_3,6,28650,1,103,175,2,m,4,1840,126,fa,6,m,23,NA,NA,NA
EA_exp_3,6,28650,1,104,144,2,m,4,878,98,fa,6,m,23,NA,NA,NA
EA_exp_3,6,28650,1,105,122,2,z,3,1537,236,cr,2,m,23,NA,NA,NA
EA_exp_3,6,28650,1,106,98,1,m,3,1524,255,hit,5,m,23,q,older,1
EA_exp_3,6,28650,1,107,77,1,m,4,838,207,hit,6,m,23,p,younger,1
EA_exp_3,6,28650,1,108,52,1,z,3,1209,306,miss,2,m,23,p,younger,1
EA_exp_3,6,28650,1,109,164,2,z,3,888,252,cr,2,m,23,NA,NA,NA
EA_exp_3,6,28650,1,110,168,2,z,3,645,147,cr,2,m,23,NA,NA,NA
EA_exp_3,6,28650,1,111,45,1,z,3,699,189,miss,2,m,23,p,younger,1
EA_exp_3,6,28650,1,112,15,1,z,3,1482,196,miss,2,m,23,p,younger,1
EA_exp_3,6,28650,1,113,115,2,z,3,720,236,cr,2,m,23,NA,NA,NA
EA_exp_3,6,28650,1,114,113,2,z,3,708,240,cr,2,m,23,NA,NA,NA
EA_exp_3,6,28650,1,115,74,1,m,2,1835,167,hit,4,m,23,q,older,1
EA_exp_3,6,28650,1,116,148,2,z,3,997,323,cr,2,m,23,NA,NA,NA
EA_exp_3,6,28650,1,117,149,2,z,2,874,478,cr,3,m,23,NA,NA,NA
EA_exp_3,6,28650,1,118,60,1,m,3,815,950,hit,5,m,23,p,younger,1
EA_exp_3,6,28650,1,119,188,2,m,4,866,536,fa,6,m,23,NA,NA,NA
EA_exp_3,6,28650,1,120,73,1,z,3,1094,226,miss,2,m,23,q,older,1
EA_exp_3,6,28650,1,121,140,2,z,2,1638,289,cr,3,m,23,NA,NA,NA
EA_exp_3,6,28650,1,122,182,2,m,3,758,129,fa,5,m,23,NA,NA,NA
EA_exp_3,6,28650,1,123,108,2,m,2,2671,300,fa,4,m,23,NA,NA,NA
EA_exp_3,6,28650,1,124,76,1,m,2,1107,191,hit,4,m,23,q,older,1
EA_exp_3,6,28650,1,125,142,2,z,3,855,286,cr,2,m,23,NA,NA,NA
EA_exp_3,6,28650,1,126,38,1,m,4,1239,366,hit,6,m,23,q,older,1
EA_exp_3,6,28650,1,127,51,1,m,4,1125,141,hit,6,m,23,q,older,1
EA_exp_3,6,28650,1,128,1,1,m,4,810,131,hit,6,m,23,q,older,1
EA_exp_3,6,28650,1,129,72,1,m,2,992,817,hit,4,m,23,q,older,1
EA_exp_3,6,28650,1,130,121,2,z,3,1073,223,cr,2,m,23,NA,NA,NA
EA_exp_3,6,28650,1,131,91,1,z,3,1318,733,miss,2,m,23,p,younger,1
EA_exp_3,6,28650,1,132,25,1,m,4,1076,191,hit,6,m,23,p,younger,1
EA_exp_3,6,28650,1,133,27,1,m,4,745,147,hit,6,m,23,q,older,1
EA_exp_3,6,28650,1,134,127,2,m,4,978,115,fa,6,m,23,NA,NA,NA
EA_exp_3,6,28650,1,135,63,1,z,2,576,210,miss,3,m,23,q,older,1
EA_exp_3,6,28650,1,136,29,1,z,2,3179,661,miss,3,m,23,q,older,1
EA_exp_3,6,28650,1,137,62,1,z,3,1294,577,miss,2,m,23,q,older,1
EA_exp_3,6,28650,1,138,147,2,z,3,988,190,cr,2,m,23,NA,NA,NA
EA_exp_3,6,28650,1,139,131,2,z,3,693,165,cr,2,m,23,NA,NA,NA
EA_exp_3,6,28650,1,140,191,2,z,2,816,169,cr,3,m,23,NA,NA,NA
EA_exp_3,6,28650,1,141,109,2,z,4,1378,293,cr,1,m,23,NA,NA,NA
EA_exp_3,6,28650,1,142,48,1,z,3,572,286,miss,2,m,23,q,older,1
EA_exp_3,6,28650,1,143,114,2,z,4,1221,334,cr,1,m,23,NA,NA,NA
EA_exp_3,6,28650,1,144,138,2,z,3,899,278,cr,2,m,23,NA,NA,NA
EA_exp_3,6,28650,1,145,68,1,z,3,638,222,miss,2,m,23,q,older,1
EA_exp_3,6,28650,1,146,69,1,z,2,529,602,miss,3,m,23,p,younger,1
EA_exp_3,6,28650,1,147,199,2,m,4,1540,159,fa,6,m,23,NA,NA,NA
EA_exp_3,6,28650,1,148,174,2,z,3,764,181,cr,2,m,23,NA,NA,NA
EA_exp_3,6,28650,1,149,43,1,z,3,497,166,miss,2,m,23,q,older,1
EA_exp_3,6,28650,1,150,184,2,z,3,1343,339,cr,2,m,23,NA,NA,NA
EA_exp_3,6,28650,1,151,198,2,z,4,713,308,cr,1,m,23,NA,NA,NA
EA_exp_3,6,28650,1,152,92,1,z,4,566,204,miss,1,m,23,p,younger,1
EA_exp_3,6,28650,1,153,34,1,m,4,1332,185,hit,6,m,23,p,younger,1
EA_exp_3,6,28650,1,154,88,1,m,4,868,122,hit,6,m,23,q,older,1
EA_exp_3,6,28650,1,155,94,1,z,4,1287,766,miss,1,m,23,p,younger,1
EA_exp_3,6,28650,1,156,158,2,z,4,736,236,cr,1,m,23,NA,NA,NA
EA_exp_3,6,28650,1,157,90,1,m,4,1668,91,hit,6,m,23,q,older,1
EA_exp_3,6,28650,1,158,53,1,m,4,876,79,hit,6,m,23,q,older,1
EA_exp_3,6,28650,1,159,154,2,z,3,605,272,cr,2,m,23,NA,NA,NA
EA_exp_3,6,28650,1,160,120,2,m,2,1029,551,fa,4,m,23,NA,NA,NA
EA_exp_3,6,28650,1,161,170,2,z,3,612,625,cr,2,m,23,NA,NA,NA
EA_exp_3,6,28650,1,162,71,1,z,3,717,311,miss,2,m,23,q,older,1
EA_exp_3,6,28650,1,163,89,1,z,2,1036,220,miss,3,m,23,p,younger,1
EA_exp_3,6,28650,1,164,66,1,z,4,1032,293,miss,1,m,23,q,older,1
EA_exp_3,6,28650,1,165,11,1,m,4,1642,130,hit,6,m,23,q,older,1
EA_exp_3,6,28650,1,166,6,1,m,4,811,105,hit,6,m,23,q,older,1
EA_exp_3,6,28650,1,167,179,2,z,4,1127,177,cr,1,m,23,NA,NA,NA
EA_exp_3,6,28650,1,168,189,2,z,4,974,191,cr,1,m,23,NA,NA,NA
EA_exp_3,6,28650,1,169,135,2,z,4,1031,168,cr,1,m,23,NA,NA,NA
EA_exp_3,6,28650,1,170,167,2,z,2,689,145,cr,3,m,23,NA,NA,NA
EA_exp_3,6,28650,1,171,132,2,m,4,813,134,fa,6,m,23,NA,NA,NA
EA_exp_3,6,28650,1,172,150,2,z,4,1443,129,cr,1,m,23,NA,NA,NA
EA_exp_3,6,28650,1,173,100,1,z,4,879,132,miss,1,m,23,p,younger,1
EA_exp_3,6,28650,1,174,79,1,z,4,624,129,miss,1,m,23,p,younger,1
EA_exp_3,6,28650,1,175,169,2,z,4,588,127,cr,1,m,23,NA,NA,NA
EA_exp_3,6,28650,1,176,157,2,z,4,1384,173,cr,1,m,23,NA,NA,NA
EA_exp_3,6,28650,1,177,28,1,z,4,827,112,miss,1,m,23,q,older,1
EA_exp_3,6,28650,1,178,13,1,z,4,1197,150,miss,1,m,23,q,older,1
EA_exp_3,6,28650,1,179,161,2,z,2,2865,88,cr,3,m,23,NA,NA,NA
EA_exp_3,6,28650,1,180,136,2,z,3,969,201,cr,2,m,23,NA,NA,NA
EA_exp_3,6,28650,1,181,46,1,z,1,833,2042,miss,3,m,23,q,older,1
EA_exp_3,6,28650,1,182,7,1,z,3,2313,183,miss,2,m,23,p,younger,1
EA_exp_3,6,28650,1,183,23,1,m,4,978,195,hit,6,m,23,q,older,1
EA_exp_3,6,28650,1,184,58,1,z,3,1073,188,miss,2,m,23,p,younger,1
EA_exp_3,6,28650,1,185,42,1,z,3,1316,267,miss,2,m,23,q,older,1
EA_exp_3,6,28650,1,186,200,2,z,3,769,204,cr,2,m,23,NA,NA,NA
EA_exp_3,6,28650,1,187,185,2,z,3,711,194,cr,2,m,23,NA,NA,NA
EA_exp_3,6,28650,1,188,81,1,m,4,1355,95,hit,6,m,23,q,older,1
EA_exp_3,6,28650,1,189,117,2,z,2,831,135,cr,3,m,23,NA,NA,NA
EA_exp_3,6,28650,1,190,19,1,m,4,1075,143,hit,6,m,23,p,younger,1
EA_exp_3,6,28650,1,191,24,1,m,4,695,121,hit,6,m,23,q,older,1
EA_exp_3,6,28650,1,192,155,2,z,2,599,151,cr,3,m,23,NA,NA,NA
EA_exp_3,6,28650,1,193,65,1,m,2,770,429,hit,4,m,23,q,older,1
EA_exp_3,6,28650,1,194,102,2,z,3,1099,478,cr,2,m,23,NA,NA,NA
EA_exp_3,6,28650,1,195,59,1,z,4,5442,552,miss,1,m,23,p,younger,1
EA_exp_3,6,28650,1,196,133,2,z,2,1027,323,cr,3,m,23,NA,NA,NA
EA_exp_3,6,28650,1,197,194,2,z,2,778,210,cr,3,m,23,NA,NA,NA
EA_exp_3,6,28650,1,198,183,2,m,4,715,536,fa,6,m,23,NA,NA,NA
EA_exp_3,6,28650,1,199,187,2,z,2,693,321,cr,3,m,23,NA,NA,NA
EA_exp_3,6,28650,1,200,145,2,z,2,483,220,cr,3,m,23,NA,NA,NA
EA_exp_3,7,28649,1,1,61,1,m,4,3493,1292,hit,6,f,20,p,younger,1
EA_exp_3,7,28649,1,2,115,2,z,2,4075,2784,cr,3,f,20,NA,NA,NA
EA_exp_3,7,28649,1,3,16,1,m,2,6307,1151,hit,4,f,20,q,older,1
EA_exp_3,7,28649,1,4,43,1,z,2,2946,1462,miss,3,f,20,q,older,1
EA_exp_3,7,28649,1,5,175,2,z,2,2829,837,cr,3,f,20,NA,NA,NA
EA_exp_3,7,28649,1,6,176,2,z,4,1811,1141,cr,1,f,20,NA,NA,NA
EA_exp_3,7,28649,1,7,134,2,z,4,1736,1213,cr,1,f,20,NA,NA,NA
EA_exp_3,7,28649,1,8,3,1,m,4,2011,839,hit,6,f,20,q,older,1
EA_exp_3,7,28649,1,9,90,1,m,3,4370,1008,hit,5,f,20,q,older,1
EA_exp_3,7,28649,1,10,1,1,z,2,1817,1274,miss,3,f,20,q,older,1
EA_exp_3,7,28649,1,11,93,1,m,4,1148,1076,hit,6,f,20,p,younger,1
EA_exp_3,7,28649,1,12,56,1,z,2,3386,574,miss,3,f,20,q,older,1
EA_exp_3,7,28649,1,13,85,1,m,2,3880,535,hit,4,f,20,q,older,1
EA_exp_3,7,28649,1,14,109,2,z,3,1985,1068,cr,2,f,20,NA,NA,NA
EA_exp_3,7,28649,1,15,123,2,z,4,1860,1281,cr,1,f,20,NA,NA,NA
EA_exp_3,7,28649,1,16,12,1,m,2,1841,639,hit,4,f,20,q,older,1
EA_exp_3,7,28649,1,17,110,2,z,4,1448,840,cr,1,f,20,NA,NA,NA
EA_exp_3,7,28649,1,18,163,2,z,3,1560,802,cr,2,f,20,NA,NA,NA
EA_exp_3,7,28649,1,19,18,1,m,3,1957,1054,hit,5,f,20,p,younger,1
EA_exp_3,7,28649,1,20,152,2,z,3,3847,678,cr,2,f,20,NA,NA,NA
EA_exp_3,7,28649,1,21,121,2,z,3,1050,908,cr,2,f,20,NA,NA,NA
EA_exp_3,7,28649,1,22,94,1,m,4,1574,754,hit,6,f,20,p,younger,1
EA_exp_3,7,28649,1,23,88,1,m,4,1448,549,hit,6,f,20,p,younger,1
EA_exp_3,7,28649,1,24,144,2,z,3,1006,641,cr,2,f,20,NA,NA,NA
EA_exp_3,7,28649,1,25,128,2,m,2,1751,413,fa,4,f,20,NA,NA,NA
EA_exp_3,7,28649,1,26,180,2,z,3,1069,1453,cr,2,f,20,NA,NA,NA
EA_exp_3,7,28649,1,27,6,1,m,4,1192,558,hit,6,f,20,q,older,1
EA_exp_3,7,28649,1,28,184,2,z,2,2697,1911,cr,3,f,20,NA,NA,NA
EA_exp_3,7,28649,1,29,48,1,m,2,2397,405,hit,4,f,20,q,older,1
EA_exp_3,7,28649,1,30,79,1,m,4,1255,1246,hit,6,f,20,p,younger,1
EA_exp_3,7,28649,1,31,97,1,m,2,2846,341,hit,4,f,20,p,younger,1
EA_exp_3,7,28649,1,32,198,2,z,4,1546,1014,cr,1,f,20,NA,NA,NA
EA_exp_3,7,28649,1,33,78,1,m,4,1470,461,hit,6,f,20,p,younger,1
EA_exp_3,7,28649,1,34,76,1,z,2,2078,1330,miss,3,f,20,q,older,1
EA_exp_3,7,28649,1,35,170,2,z,4,1760,721,cr,1,f,20,NA,NA,NA
EA_exp_3,7,28649,1,36,145,2,z,3,1458,549,cr,2,f,20,NA,NA,NA
EA_exp_3,7,28649,1,37,10,1,m,3,1231,601,hit,5,f,20,p,younger,1
EA_exp_3,7,28649,1,38,39,1,m,4,2769,685,hit,6,f,20,p,younger,1
EA_exp_3,7,28649,1,39,125,2,z,3,1200,412,cr,2,f,20,NA,NA,NA
EA_exp_3,7,28649,1,40,124,2,z,4,1614,567,cr,1,f,20,NA,NA,NA
EA_exp_3,7,28649,1,41,190,2,z,3,1326,1317,cr,2,f,20,NA,NA,NA
EA_exp_3,7,28649,1,42,74,1,m,4,1412,594,hit,6,f,20,q,older,1
EA_exp_3,7,28649,1,43,120,2,z,3,1181,790,cr,2,f,20,NA,NA,NA
EA_exp_3,7,28649,1,44,171,2,z,4,1353,444,cr,1,f,20,NA,NA,NA
EA_exp_3,7,28649,1,45,95,1,m,4,1544,1191,hit,6,f,20,q,older,1
EA_exp_3,7,28649,1,46,80,1,m,4,966,412,hit,6,f,20,p,younger,1
EA_exp_3,7,28649,1,47,178,2,z,2,1867,700,cr,3,f,20,NA,NA,NA
EA_exp_3,7,28649,1,48,30,1,z,2,3423,673,miss,3,f,20,p,younger,1
EA_exp_3,7,28649,1,49,28,1,m,3,1462,390,hit,5,f,20,p,younger,1
EA_exp_3,7,28649,1,50,129,2,z,2,1334,364,cr,3,f,20,NA,NA,NA
EA_exp_3,7,28649,1,51,66,1,m,4,895,437,hit,6,f,20,q,older,1
EA_exp_3,7,28649,1,52,113,2,z,4,2146,984,cr,1,f,20,NA,NA,NA
EA_exp_3,7,28649,1,53,102,2,z,2,1457,449,cr,3,f,20,NA,NA,NA
EA_exp_3,7,28649,1,54,161,2,z,4,1568,731,cr,1,f,20,NA,NA,NA
EA_exp_3,7,28649,1,55,103,2,z,3,1779,386,cr,2,f,20,NA,NA,NA
EA_exp_3,7,28649,1,56,162,2,z,4,1094,530,cr,1,f,20,NA,NA,NA
EA_exp_3,7,28649,1,57,182,2,z,2,1134,650,cr,3,f,20,NA,NA,NA
EA_exp_3,7,28649,1,58,155,2,z,2,879,871,cr,3,f,20,NA,NA,NA
EA_exp_3,7,28649,1,59,157,2,z,2,1349,394,cr,3,f,20,NA,NA,NA
EA_exp_3,7,28649,1,60,122,2,z,3,1227,403,cr,2,f,20,NA,NA,NA
EA_exp_3,7,28649,1,61,83,1,m,4,1156,399,hit,6,f,20,q,older,1
EA_exp_3,7,28649,1,62,71,1,m,4,1248,344,hit,6,f,20,q,older,1
EA_exp_3,7,28649,1,63,38,1,z,2,1180,630,miss,3,f,20,None,NA,1
EA_exp_3,7,28649,1,64,165,2,z,3,1166,394,cr,2,f,20,NA,NA,NA
EA_exp_3,7,28649,1,65,169,2,m,1,3192,1013,fa,4,f,20,NA,NA,NA
EA_exp_3,7,28649,1,66,154,2,m,2,2765,345,fa,4,f,20,NA,NA,NA
EA_exp_3,7,28649,1,67,75,1,z,3,2986,735,miss,2,f,20,q,older,1
EA_exp_3,7,28649,1,68,200,2,z,4,2405,972,cr,1,f,20,NA,NA,NA
EA_exp_3,7,28649,1,69,27,1,z,3,1190,656,miss,2,f,20,q,older,1
EA_exp_3,7,28649,1,70,142,2,z,3,1141,675,cr,2,f,20,NA,NA,NA
EA_exp_3,7,28649,1,71,45,1,m,4,1146,597,hit,6,f,20,q,older,1
EA_exp_3,7,28649,1,72,99,1,m,4,1004,272,hit,6,f,20,p,younger,1
EA_exp_3,7,28649,1,73,50,1,m,4,949,394,hit,6,f,20,q,older,1
EA_exp_3,7,28649,1,74,107,2,z,3,1003,461,cr,2,f,20,NA,NA,NA
EA_exp_3,7,28649,1,75,25,1,m,4,943,272,hit,6,f,20,p,younger,1
EA_exp_3,7,28649,1,76,192,2,z,2,996,1000,cr,3,f,20,NA,NA,NA
EA_exp_3,7,28649,1,77,89,1,m,4,958,452,hit,6,f,20,q,older,1
EA_exp_3,7,28649,1,78,69,1,z,2,2368,734,miss,3,f,20,q,older,1
EA_exp_3,7,28649,1,79,150,2,z,4,1491,367,cr,1,f,20,NA,NA,NA
EA_exp_3,7,28649,1,80,117,2,z,2,1859,368,cr,3,f,20,NA,NA,NA
EA_exp_3,7,28649,1,81,60,1,m,2,3685,986,hit,4,f,20,p,younger,1
EA_exp_3,7,28649,1,82,114,2,z,2,1396,6532,cr,3,f,20,NA,NA,NA
EA_exp_3,7,28649,1,83,81,1,m,4,1456,752,hit,6,f,20,q,older,1
EA_exp_3,7,28649,1,84,65,1,m,4,2146,374,hit,6,f,20,p,younger,1
EA_exp_3,7,28649,1,85,47,1,z,2,5090,631,miss,3,f,20,q,older,1
EA_exp_3,7,28649,1,86,127,2,m,3,2432,247,fa,5,f,20,NA,NA,NA
EA_exp_3,7,28649,1,87,63,1,z,3,946,290,miss,2,f,20,q,older,1
EA_exp_3,7,28649,1,88,42,1,m,4,1528,245,hit,6,f,20,q,older,1
EA_exp_3,7,28649,1,89,34,1,z,3,1501,1130,miss,2,f,20,p,younger,1
EA_exp_3,7,28649,1,90,168,2,z,4,1372,321,cr,1,f,20,NA,NA,NA
EA_exp_3,7,28649,1,91,13,1,z,4,1316,505,miss,1,f,20,p,younger,1
EA_exp_3,7,28649,1,92,174,2,z,3,840,847,cr,2,f,20,NA,NA,NA
EA_exp_3,7,28649,1,93,158,2,z,3,1154,410,cr,2,f,20,NA,NA,NA
EA_exp_3,7,28649,1,94,166,2,m,2,1931,280,fa,4,f,20,NA,NA,NA
EA_exp_3,7,28649,1,95,151,2,z,3,1549,554,cr,2,f,20,NA,NA,NA
EA_exp_3,7,28649,1,96,29,1,z,2,1444,1188,miss,3,f,20,p,younger,1
EA_exp_3,7,28649,1,97,181,2,m,2,2726,227,fa,4,f,20,NA,NA,NA
EA_exp_3,7,28649,1,98,31,1,z,2,1790,349,miss,3,f,20,q,older,1
EA_exp_3,7,28649,1,99,199,2,m,2,2928,565,fa,4,f,20,NA,NA,NA
EA_exp_3,7,28649,1,100,111,2,z,2,1267,375,cr,3,f,20,NA,NA,NA
EA_exp_3,7,28649,1,101,140,2,m,3,1147,373,fa,5,f,20,NA,NA,NA
EA_exp_3,7,28649,1,102,195,2,z,2,2438,527,cr,3,f,20,NA,NA,NA
EA_exp_3,7,28649,1,103,44,1,z,3,1693,417,miss,2,f,20,p,younger,1
EA_exp_3,7,28649,1,104,146,2,z,2,1365,325,cr,3,f,20,NA,NA,NA
EA_exp_3,7,28649,1,105,2,1,m,4,997,458,hit,6,f,20,q,older,1
EA_exp_3,7,28649,1,106,73,1,z,4,1387,380,miss,1,f,20,q,older,1
EA_exp_3,7,28649,1,107,137,2,z,3,1165,328,cr,2,f,20,NA,NA,NA
EA_exp_3,7,28649,1,108,67,1,m,4,976,272,hit,6,f,20,p,younger,1
EA_exp_3,7,28649,1,109,147,2,z,3,2103,379,cr,2,f,20,NA,NA,NA
EA_exp_3,7,28649,1,110,148,2,z,4,1486,508,cr,1,f,20,NA,NA,NA
EA_exp_3,7,28649,1,111,183,2,z,2,1355,300,cr,3,f,20,NA,NA,NA
EA_exp_3,7,28649,1,112,116,2,z,3,990,548,cr,2,f,20,NA,NA,NA
EA_exp_3,7,28649,1,113,26,1,m,4,1328,244,hit,6,f,20,q,older,1
EA_exp_3,7,28649,1,114,92,1,m,4,780,230,hit,6,f,20,q,older,1
EA_exp_3,7,28649,1,115,51,1,m,4,1790,800,hit,6,f,20,q,older,1
EA_exp_3,7,28649,1,116,187,2,z,2,1520,1151,cr,3,f,20,NA,NA,NA
EA_exp_3,7,28649,1,117,193,2,z,2,1409,354,cr,3,f,20,NA,NA,NA
EA_exp_3,7,28649,1,118,52,1,m,3,2405,222,hit,5,f,20,q,older,1
EA_exp_3,7,28649,1,119,19,1,z,2,1832,711,miss,3,f,20,p,younger,1
EA_exp_3,7,28649,1,120,96,1,m,4,1023,1276,hit,6,f,20,q,older,1
EA_exp_3,7,28649,1,121,86,1,z,1,1419,2525,miss,3,f,20,q,older,1
EA_exp_3,7,28649,1,122,36,1,m,4,1208,721,hit,6,f,20,p,younger,1
EA_exp_3,7,28649,1,123,130,2,m,1,1703,332,fa,4,f,20,NA,NA,NA
EA_exp_3,7,28649,1,124,135,2,z,3,1793,353,cr,2,f,20,NA,NA,NA
EA_exp_3,7,28649,1,125,22,1,m,2,1269,540,hit,4,f,20,q,older,1
EA_exp_3,7,28649,1,126,35,1,m,3,1897,229,hit,5,f,20,q,older,1
EA_exp_3,7,28649,1,127,55,1,m,4,943,322,hit,6,f,20,q,older,1
EA_exp_3,7,28649,1,128,197,2,z,2,1976,1201,cr,3,f,20,NA,NA,NA
EA_exp_3,7,28649,1,129,185,2,z,2,1728,421,cr,3,f,20,NA,NA,NA
EA_exp_3,7,28649,1,130,167,2,z,3,2419,478,cr,2,f,20,NA,NA,NA
EA_exp_3,7,28649,1,131,188,2,z,3,1645,724,cr,2,f,20,NA,NA,NA
EA_exp_3,7,28649,1,132,17,1,m,4,1112,309,hit,6,f,20,q,older,1
EA_exp_3,7,28649,1,133,108,2,z,3,1133,311,cr,2,f,20,NA,NA,NA
EA_exp_3,7,28649,1,134,24,1,m,2,1264,371,hit,4,f,20,q,older,1
EA_exp_3,7,28649,1,135,72,1,z,2,1174,816,miss,3,f,20,q,older,1
EA_exp_3,7,28649,1,136,4,1,m,2,1121,221,hit,4,f,20,q,older,1
EA_exp_3,7,28649,1,137,62,1,m,2,992,503,hit,4,f,20,p,younger,1
EA_exp_3,7,28649,1,138,194,2,z,2,1251,428,cr,3,f,20,NA,NA,NA
EA_exp_3,7,28649,1,139,5,1,z,2,1214,341,miss,3,f,20,q,older,1
EA_exp_3,7,28649,1,140,87,1,m,4,940,477,hit,6,f,20,q,older,1
EA_exp_3,7,28649,1,141,54,1,m,4,2206,367,hit,6,f,20,q,older,1
EA_exp_3,7,28649,1,142,139,2,z,2,1041,496,cr,3,f,20,NA,NA,NA
EA_exp_3,7,28649,1,143,172,2,z,2,4012,343,cr,3,f,20,NA,NA,NA
EA_exp_3,7,28649,1,144,7,1,m,2,7132,759,hit,4,f,20,p,younger,1
EA_exp_3,7,28649,1,145,179,2,z,2,1978,308,cr,3,f,20,NA,NA,NA
EA_exp_3,7,28649,1,146,33,1,z,2,1467,376,miss,3,f,20,q,older,1
EA_exp_3,7,28649,1,147,119,2,m,1,2008,275,fa,4,f,20,NA,NA,NA
EA_exp_3,7,28649,1,148,156,2,z,2,2891,384,cr,3,f,20,NA,NA,NA
EA_exp_3,7,28649,1,149,141,2,z,4,1343,581,cr,1,f,20,NA,NA,NA
EA_exp_3,7,28649,1,150,64,1,m,2,1149,827,hit,4,f,20,q,older,1
EA_exp_3,7,28649,1,151,160,2,z,3,1306,497,cr,2,f,20,NA,NA,NA
EA_exp_3,7,28649,1,152,143,2,z,2,1238,534,cr,3,f,20,NA,NA,NA
EA_exp_3,7,28649,1,153,133,2,z,3,3490,398,cr,2,f,20,NA,NA,NA
EA_exp_3,7,28649,1,154,126,2,z,3,3889,384,cr,2,f,20,NA,NA,NA
EA_exp_3,7,28649,1,155,164,2,z,3,4080,1192,cr,2,f,20,NA,NA,NA
EA_exp_3,7,28649,1,156,46,1,m,3,1337,365,hit,5,f,20,q,older,1
EA_exp_3,7,28649,1,157,40,1,m,2,1072,287,hit,4,f,20,q,older,1
EA_exp_3,7,28649,1,158,49,1,m,3,884,267,hit,5,f,20,p,younger,1
EA_exp_3,7,28649,1,159,104,2,z,4,1044,977,cr,1,f,20,NA,NA,NA
EA_exp_3,7,28649,1,160,105,2,z,4,1241,643,cr,1,f,20,NA,NA,NA
EA_exp_3,7,28649,1,161,21,1,m,2,1387,350,hit,4,f,20,q,older,1
EA_exp_3,7,28649,1,162,191,2,z,2,1279,455,cr,3,f,20,NA,NA,NA
EA_exp_3,7,28649,1,163,70,1,m,4,1830,791,hit,6,f,20,q,older,1
EA_exp_3,7,28649,1,164,173,2,z,3,2395,530,cr,2,f,20,NA,NA,NA
EA_exp_3,7,28649,1,165,53,1,m,4,1007,271,hit,6,f,20,q,older,1
EA_exp_3,7,28649,1,166,118,2,z,3,1272,684,cr,2,f,20,NA,NA,NA
EA_exp_3,7,28649,1,167,100,1,m,4,1569,382,hit,6,f,20,q,older,1
EA_exp_3,7,28649,1,168,149,2,z,3,1008,817,cr,2,f,20,NA,NA,NA
EA_exp_3,7,28649,1,169,15,1,z,3,1026,465,miss,2,f,20,p,younger,1
EA_exp_3,7,28649,1,170,58,1,m,4,1264,311,hit,6,f,20,q,older,1
EA_exp_3,7,28649,1,171,11,1,m,2,2619,621,hit,4,f,20,q,older,1
EA_exp_3,7,28649,1,172,82,1,m,2,1960,368,hit,4,f,20,q,older,1
EA_exp_3,7,28649,1,173,57,1,m,4,934,263,hit,6,f,20,p,younger,1
EA_exp_3,7,28649,1,174,37,1,m,4,1243,261,hit,6,f,20,p,younger,1
EA_exp_3,7,28649,1,175,132,2,z,3,2204,750,cr,2,f,20,NA,NA,NA
EA_exp_3,7,28649,1,176,189,2,z,2,1412,386,cr,3,f,20,NA,NA,NA
EA_exp_3,7,28649,1,177,9,1,z,2,1349,328,miss,3,f,20,q,older,1
EA_exp_3,7,28649,1,178,59,1,m,4,940,416,hit,6,f,20,p,younger,1
EA_exp_3,7,28649,1,179,101,2,z,3,1521,350,cr,2,f,20,NA,NA,NA
EA_exp_3,7,28649,1,180,136,2,m,3,1921,286,fa,5,f,20,NA,NA,NA
EA_exp_3,7,28649,1,181,153,2,z,3,1300,345,cr,2,f,20,NA,NA,NA
EA_exp_3,7,28649,1,182,138,2,m,2,1387,287,fa,4,f,20,NA,NA,NA
EA_exp_3,7,28649,1,183,84,1,m,3,1110,338,hit,5,f,20,q,older,1
EA_exp_3,7,28649,1,184,68,1,m,3,1049,341,hit,5,f,20,q,older,1
EA_exp_3,7,28649,1,185,159,2,z,2,1109,951,cr,3,f,20,NA,NA,NA
EA_exp_3,7,28649,1,186,8,1,m,4,1809,370,hit,6,f,20,q,older,1
EA_exp_3,7,28649,1,187,196,2,z,2,2327,336,cr,3,f,20,NA,NA,NA
EA_exp_3,7,28649,1,188,32,1,z,2,2199,454,miss,3,f,20,q,older,1
EA_exp_3,7,28649,1,189,177,2,z,2,1108,306,cr,3,f,20,NA,NA,NA
EA_exp_3,7,28649,1,190,20,1,z,2,2009,416,miss,3,f,20,q,older,1
EA_exp_3,7,28649,1,191,186,2,z,2,958,276,cr,3,f,20,NA,NA,NA
EA_exp_3,7,28649,1,192,91,1,m,4,888,528,hit,6,f,20,p,younger,1
EA_exp_3,7,28649,1,193,98,1,m,4,1551,248,hit,6,f,20,q,older,1
EA_exp_3,7,28649,1,194,23,1,m,4,1152,331,hit,6,f,20,q,older,1
EA_exp_3,7,28649,1,195,112,2,z,3,1231,568,cr,2,f,20,NA,NA,NA
EA_exp_3,7,28649,1,196,77,1,m,4,1171,573,hit,6,f,20,q,older,1
EA_exp_3,7,28649,1,197,131,2,z,2,1031,392,cr,3,f,20,NA,NA,NA
EA_exp_3,7,28649,1,198,41,1,z,3,1725,383,miss,2,f,20,q,older,1
EA_exp_3,7,28649,1,199,14,1,m,4,960,484,hit,6,f,20,q,older,1
EA_exp_3,7,28649,1,200,106,2,z,3,2112,1190,cr,2,f,20,NA,NA,NA
EA_exp_3,8,28636,2,1,12,2,z,4,3914,7095,cr,1,f,20,NA,NA,NA
EA_exp_3,8,28636,2,2,79,2,z,4,1518,1400,cr,1,f,20,NA,NA,NA
EA_exp_3,8,28636,2,3,121,1,m,4,1539,560,hit,6,f,20,None,NA,1
EA_exp_3,8,28636,2,4,96,2,m,3,3739,1184,fa,5,f,20,NA,NA,NA
EA_exp_3,8,28636,2,5,94,2,m,1,5586,602,fa,4,f,20,NA,NA,NA
EA_exp_3,8,28636,2,6,10,2,z,2,2372,1038,cr,3,f,20,NA,NA,NA
EA_exp_3,8,28636,2,7,42,2,z,2,1892,948,cr,3,f,20,NA,NA,NA
EA_exp_3,8,28636,2,8,160,1,m,4,895,789,hit,6,f,20,None,NA,1
EA_exp_3,8,28636,2,9,131,1,m,4,905,716,hit,6,f,20,None,NA,1
EA_exp_3,8,28636,2,10,48,2,z,3,8609,1809,cr,2,f,20,NA,NA,NA
EA_exp_3,8,28636,2,11,137,1,z,3,5820,332,miss,2,f,20,None,NA,1
EA_exp_3,8,28636,2,12,75,2,z,3,4178,404,cr,2,f,20,NA,NA,NA
EA_exp_3,8,28636,2,13,93,2,z,3,1570,351,cr,2,f,20,NA,NA,NA
EA_exp_3,8,28636,2,14,187,1,z,4,1505,1055,miss,1,f,20,None,NA,1
EA_exp_3,8,28636,2,15,152,1,z,2,2278,437,miss,3,f,20,None,NA,1
EA_exp_3,8,28636,2,16,117,1,m,4,1124,497,hit,6,f,20,None,NA,1
EA_exp_3,8,28636,2,17,141,1,m,4,2369,265,hit,6,f,20,None,NA,1
EA_exp_3,8,28636,2,18,176,1,m,4,3550,428,hit,6,f,20,None,NA,1
EA_exp_3,8,28636,2,19,108,1,m,4,923,272,hit,6,f,20,None,NA,1
EA_exp_3,8,28636,2,20,179,1,z,2,2438,927,miss,3,f,20,None,NA,1
EA_exp_3,8,28636,2,21,55,2,z,2,8539,976,cr,3,f,20,NA,NA,NA
EA_exp_3,8,28636,2,22,142,1,z,1,1284,335,miss,3,f,20,None,NA,1
EA_exp_3,8,28636,2,23,26,2,m,1,2033,187,fa,4,f,20,NA,NA,NA
EA_exp_3,8,28636,2,24,29,2,m,3,1270,315,fa,5,f,20,NA,NA,NA
EA_exp_3,8,28636,2,25,126,1,m,2,2254,960,hit,4,f,20,None,NA,1
EA_exp_3,8,28636,2,26,119,1,z,4,1017,1323,miss,1,f,20,None,NA,1
EA_exp_3,8,28636,2,27,91,2,z,3,4054,1119,cr,2,f,20,NA,NA,NA
EA_exp_3,8,28636,2,28,115,1,z,3,3748,1079,miss,2,f,20,None,NA,1
EA_exp_3,8,28636,2,29,168,1,z,4,4748,1593,miss,1,f,20,None,NA,1
EA_exp_3,8,28636,2,30,139,1,m,4,6178,444,hit,6,f,20,None,NA,1
EA_exp_3,8,28636,2,31,154,1,m,4,2093,147,hit,6,f,20,p,younger,1
EA_exp_3,8,28636,2,32,106,1,m,4,864,165,hit,6,f,20,None,NA,1
EA_exp_3,8,28636,2,33,7,2,z,2,2080,1078,cr,3,f,20,NA,NA,NA
EA_exp_3,8,28636,2,34,155,1,m,4,1306,433,hit,6,f,20,None,NA,1
EA_exp_3,8,28636,2,35,178,1,z,1,1665,1352,miss,3,f,20,None,NA,1
EA_exp_3,8,28636,2,36,50,2,z,3,1077,817,cr,2,f,20,NA,NA,NA
EA_exp_3,8,28636,2,37,8,2,z,4,2223,850,cr,1,f,20,NA,NA,NA
EA_exp_3,8,28636,2,38,3,2,m,4,847,793,fa,6,f,20,NA,NA,NA
EA_exp_3,8,28636,2,39,149,1,z,2,970,814,miss,3,f,20,None,NA,1
EA_exp_3,8,28636,2,40,182,1,m,1,1438,1279,hit,4,f,20,None,NA,1
EA_exp_3,8,28636,2,41,170,1,m,4,1021,542,hit,6,f,20,None,NA,1
EA_exp_3,8,28636,2,42,190,1,m,4,1530,230,hit,6,f,20,q,older,1
EA_exp_3,8,28636,2,43,11,2,m,4,877,150,fa,6,f,20,NA,NA,NA
EA_exp_3,8,28636,2,44,73,2,z,2,1439,526,cr,3,f,20,NA,NA,NA
EA_exp_3,8,28636,2,45,47,2,z,2,3307,385,cr,3,f,20,NA,NA,NA
EA_exp_3,8,28636,2,46,68,2,z,2,3569,574,cr,3,f,20,NA,NA,NA
EA_exp_3,8,28636,2,47,132,1,m,4,1031,632,hit,6,f,20,None,NA,1
EA_exp_3,8,28636,2,48,41,2,m,4,1584,251,fa,6,f,20,NA,NA,NA
EA_exp_3,8,28636,2,49,81,2,m,4,1635,282,fa,6,f,20,NA,NA,NA
EA_exp_3,8,28636,2,50,195,1,z,1,3058,1168,miss,3,f,20,None,NA,1
EA_exp_3,8,28636,2,51,16,2,z,1,1475,368,cr,3,f,20,NA,NA,NA
EA_exp_3,8,28636,2,52,124,1,z,4,2145,1543,miss,1,f,20,None,NA,1
EA_exp_3,8,28636,2,53,88,2,z,1,1948,406,cr,3,f,20,NA,NA,NA
EA_exp_3,8,28636,2,54,144,1,z,1,2614,360,miss,3,f,20,None,NA,1
EA_exp_3,8,28636,2,55,105,1,m,4,1610,196,hit,6,f,20,None,NA,1
EA_exp_3,8,28636,2,56,198,1,m,4,5517,363,hit,6,f,20,None,NA,1
EA_exp_3,8,28636,2,57,15,2,m,1,1740,417,fa,4,f,20,NA,NA,NA
EA_exp_3,8,28636,2,58,62,2,z,2,1664,360,cr,3,f,20,NA,NA,NA
EA_exp_3,8,28636,2,59,85,2,m,3,3148,183,fa,5,f,20,NA,NA,NA
EA_exp_3,8,28636,2,60,17,2,z,1,3875,511,cr,3,f,20,NA,NA,NA
EA_exp_3,8,28636,2,61,113,1,m,4,1577,470,hit,6,f,20,None,NA,1
EA_exp_3,8,28636,2,62,89,2,z,3,1447,451,cr,2,f,20,NA,NA,NA
EA_exp_3,8,28636,2,63,172,1,m,4,1375,390,hit,6,f,20,None,NA,1
EA_exp_3,8,28636,2,64,163,1,m,4,1768,394,hit,6,f,20,None,NA,1
EA_exp_3,8,28636,2,65,36,2,m,2,1560,471,fa,4,f,20,NA,NA,NA
EA_exp_3,8,28636,2,66,181,1,m,4,1332,298,hit,6,f,20,None,NA,1
EA_exp_3,8,28636,2,67,101,1,z,3,1376,370,miss,2,f,20,None,NA,1
EA_exp_3,8,28636,2,68,147,1,m,4,2068,395,hit,6,f,20,None,NA,1
EA_exp_3,8,28636,2,69,120,1,m,3,1263,756,hit,5,f,20,None,NA,1
EA_exp_3,8,28636,2,70,30,2,m,4,1477,421,fa,6,f,20,NA,NA,NA
EA_exp_3,8,28636,2,71,97,2,z,4,1332,409,cr,1,f,20,NA,NA,NA
EA_exp_3,8,28636,2,72,175,1,m,4,1658,354,hit,6,f,20,None,NA,1
EA_exp_3,8,28636,2,73,157,1,m,4,1334,361,hit,6,f,20,None,NA,1
EA_exp_3,8,28636,2,74,82,2,z,4,1403,302,cr,1,f,20,NA,NA,NA
EA_exp_3,8,28636,2,75,6,2,m,3,2451,331,fa,5,f,20,NA,NA,NA
EA_exp_3,8,28636,2,76,51,2,z,4,1325,306,cr,1,f,20,NA,NA,NA
EA_exp_3,8,28636,2,77,63,2,z,2,2150,268,cr,3,f,20,NA,NA,NA
EA_exp_3,8,28636,2,78,39,2,z,1,1985,269,cr,3,f,20,NA,NA,NA
EA_exp_3,8,28636,2,79,122,1,m,4,2018,315,hit,6,f,20,None,NA,1
EA_exp_3,8,28636,2,80,103,1,z,3,1714,630,miss,2,f,20,None,NA,1
EA_exp_3,8,28636,2,81,53,2,z,4,1808,335,cr,1,f,20,NA,NA,NA
EA_exp_3,8,28636,2,82,92,2,z,1,2529,375,cr,3,f,20,NA,NA,NA
EA_exp_3,8,28636,2,83,123,1,z,4,2007,482,miss,1,f,20,None,NA,1
EA_exp_3,8,28636,2,84,107,1,m,4,1906,335,hit,6,f,20,None,NA,1
EA_exp_3,8,28636,2,85,19,2,z,4,3203,1755,cr,1,f,20,NA,NA,NA
EA_exp_3,8,28636,2,86,194,1,m,4,1558,306,hit,6,f,20,None,NA,1
EA_exp_3,8,28636,2,87,35,2,z,2,3414,599,cr,3,f,20,NA,NA,NA
EA_exp_3,8,28636,2,88,66,2,z,4,1729,245,cr,1,f,20,NA,NA,NA
EA_exp_3,8,28636,2,89,146,1,z,1,1614,325,miss,3,f,20,None,NA,1
EA_exp_3,8,28636,2,90,71,2,z,4,1754,1389,cr,1,f,20,NA,NA,NA
EA_exp_3,8,28636,2,91,32,2,m,2,3527,451,fa,4,f,20,NA,NA,NA
EA_exp_3,8,28636,2,92,95,2,z,1,2083,440,cr,3,f,20,NA,NA,NA
EA_exp_3,8,28636,2,93,84,2,m,4,1514,645,fa,6,f,20,NA,NA,NA
EA_exp_3,8,28636,2,94,162,1,m,4,2108,258,hit,6,f,20,None,NA,1
EA_exp_3,8,28636,2,95,67,2,z,3,3469,791,cr,2,f,20,NA,NA,NA
EA_exp_3,8,28636,2,96,173,1,m,4,1336,253,hit,6,f,20,None,NA,1
EA_exp_3,8,28636,2,97,164,1,z,3,3382,599,miss,2,f,20,None,NA,1
EA_exp_3,8,28636,2,98,174,1,m,4,5185,907,hit,6,f,20,None,NA,1
EA_exp_3,8,28636,2,99,22,2,m,3,2039,351,fa,5,f,20,NA,NA,NA
EA_exp_3,8,28636,2,100,153,1,z,2,1602,332,miss,3,f,20,None,NA,1
EA_exp_3,8,28636,2,101,70,2,z,3,1985,827,cr,2,f,20,NA,NA,NA
EA_exp_3,8,28636,2,102,52,2,z,1,2348,632,cr,3,f,20,NA,NA,NA
EA_exp_3,8,28636,2,103,184,1,m,4,1858,223,hit,6,f,20,None,NA,1
EA_exp_3,8,28636,2,104,166,1,z,3,3930,404,miss,2,f,20,None,NA,1
EA_exp_3,8,28636,2,105,21,2,m,3,1638,301,fa,5,f,20,NA,NA,NA
EA_exp_3,8,28636,2,106,148,1,m,4,948,261,hit,6,f,20,None,NA,1
EA_exp_3,8,28636,2,107,140,1,m,2,2463,100,hit,4,f,20,None,NA,1
EA_exp_3,8,28636,2,108,191,1,m,4,3155,77,hit,6,f,20,None,NA,1
EA_exp_3,8,28636,2,109,40,2,z,4,1480,122,cr,1,f,20,NA,NA,NA
EA_exp_3,8,28636,2,110,56,2,z,2,2006,128,cr,3,f,20,NA,NA,NA
EA_exp_3,8,28636,2,111,38,2,z,3,1379,142,cr,2,f,20,NA,NA,NA
EA_exp_3,8,28636,2,112,65,2,z,3,2103,462,cr,2,f,20,NA,NA,NA
EA_exp_3,8,28636,2,113,186,1,m,3,1744,929,hit,5,f,20,None,NA,1
EA_exp_3,8,28636,2,114,136,1,m,4,1248,214,hit,6,f,20,p,younger,1
EA_exp_3,8,28636,2,115,199,1,m,4,1166,122,hit,6,f,20,None,NA,1
EA_exp_3,8,28636,2,116,116,1,z,4,2327,98,miss,1,f,20,None,NA,1
EA_exp_3,8,28636,2,117,23,2,z,4,1086,111,cr,1,f,20,NA,NA,NA
EA_exp_3,8,28636,2,118,44,2,z,4,1869,42,cr,1,f,20,NA,NA,NA
EA_exp_3,8,28636,2,119,5,2,m,2,2426,82,fa,4,f,20,NA,NA,NA
EA_exp_3,8,28636,2,120,111,1,m,3,16320,558,hit,5,f,20,None,NA,1
EA_exp_3,8,28636,2,121,64,2,z,3,1942,180,cr,2,f,20,NA,NA,NA
EA_exp_3,8,28636,2,122,114,1,z,3,1470,382,miss,2,f,20,None,NA,1
EA_exp_3,8,28636,2,123,46,2,z,4,3583,490,cr,1,f,20,NA,NA,NA
EA_exp_3,8,28636,2,124,197,1,m,4,1751,363,hit,6,f,20,None,NA,1
EA_exp_3,8,28636,2,125,183,1,m,3,2750,362,hit,5,f,20,None,NA,1
EA_exp_3,8,28636,2,126,72,2,z,3,4588,127,cr,2,f,20,NA,NA,NA
EA_exp_3,8,28636,2,127,171,1,z,4,1134,105,miss,1,f,20,None,NA,1
EA_exp_3,8,28636,2,128,49,2,z,4,2094,170,cr,1,f,20,NA,NA,NA
EA_exp_3,8,28636,2,129,58,2,z,4,1221,127,cr,1,f,20,NA,NA,NA
EA_exp_3,8,28636,2,130,76,2,z,4,796,84,cr,1,f,20,NA,NA,NA
EA_exp_3,8,28636,2,131,158,1,z,4,882,40,miss,1,f,20,None,NA,1
EA_exp_3,8,28636,2,132,193,1,m,4,2233,56,hit,6,f,20,None,NA,1
EA_exp_3,8,28636,2,133,59,2,z,3,3957,193,cr,2,f,20,NA,NA,NA
EA_exp_3,8,28636,2,134,13,2,z,3,2715,488,cr,2,f,20,NA,NA,NA
EA_exp_3,8,28636,2,135,86,2,z,4,1478,484,cr,1,f,20,NA,NA,NA
EA_exp_3,8,28636,2,136,135,1,z,4,1268,569,miss,1,f,20,q,older,1
EA_exp_3,8,28636,2,137,196,1,z,4,2101,1481,miss,1,f,20,None,NA,1
EA_exp_3,8,28636,2,138,177,1,m,3,4705,429,hit,5,f,20,q,older,1
EA_exp_3,8,28636,2,139,161,1,z,3,1341,417,miss,2,f,20,None,NA,1
EA_exp_3,8,28636,2,140,118,1,z,3,3569,124,miss,2,f,20,None,NA,1
EA_exp_3,8,28636,2,141,61,2,z,4,2203,1082,cr,1,f,20,NA,NA,NA
EA_exp_3,8,28636,2,142,112,1,m,3,1667,376,hit,5,f,20,None,NA,1
EA_exp_3,8,28636,2,143,1,2,z,2,4316,215,cr,3,f,20,NA,NA,NA
EA_exp_3,8,28636,2,144,31,2,m,3,1376,355,fa,5,f,20,NA,NA,NA
EA_exp_3,8,28636,2,145,192,1,m,2,3022,421,hit,4,f,20,None,NA,1
EA_exp_3,8,28636,2,146,128,1,z,2,1609,479,miss,3,f,20,None,NA,1
EA_exp_3,8,28636,2,147,102,1,z,1,1197,1479,miss,3,f,20,None,NA,1
EA_exp_3,8,28636,2,148,87,2,z,4,1373,416,cr,1,f,20,NA,NA,NA
EA_exp_3,8,28636,2,149,109,1,z,4,1330,309,miss,1,f,20,None,NA,1
EA_exp_3,8,28636,2,150,90,2,z,4,829,258,cr,1,f,20,NA,NA,NA
EA_exp_3,8,28636,2,151,28,2,z,4,954,526,cr,1,f,20,NA,NA,NA
EA_exp_3,8,28636,2,152,180,1,m,1,3690,319,hit,4,f,20,p,younger,1
EA_exp_3,8,28636,2,153,156,1,m,1,1542,479,hit,4,f,20,None,NA,1
EA_exp_3,8,28636,2,154,99,2,z,3,2124,385,cr,2,f,20,NA,NA,NA
EA_exp_3,8,28636,2,155,33,2,z,1,1651,331,cr,3,f,20,NA,NA,NA
EA_exp_3,8,28636,2,156,80,2,z,4,5506,1405,cr,1,f,20,NA,NA,NA
EA_exp_3,8,28636,2,157,25,2,m,3,1480,869,fa,5,f,20,NA,NA,NA
EA_exp_3,8,28636,2,158,34,2,m,4,1054,962,fa,6,f,20,NA,NA,NA
EA_exp_3,8,28636,2,159,188,1,m,4,831,101,hit,6,f,20,None,NA,1
EA_exp_3,8,28636,2,160,151,1,m,4,900,88,hit,6,f,20,None,NA,1
EA_exp_3,8,28636,2,161,129,1,m,4,741,81,hit,6,f,20,None,NA,1
EA_exp_3,8,28636,2,162,98,2,m,4,698,109,fa,6,f,20,NA,NA,NA
EA_exp_3,8,28636,2,163,145,1,z,4,1370,93,miss,1,f,20,None,NA,1
EA_exp_3,8,28636,2,164,189,1,z,4,1963,85,miss,1,f,20,q,older,1
EA_exp_3,8,28636,2,165,185,1,z,2,1108,144,miss,3,f,20,None,NA,1
EA_exp_3,8,28636,2,166,200,1,z,2,3819,317,miss,3,f,20,None,NA,1
EA_exp_3,8,28636,2,167,100,2,m,3,3152,317,fa,5,f,20,NA,NA,NA
EA_exp_3,8,28636,2,168,57,2,z,1,1745,324,cr,3,f,20,NA,NA,NA
EA_exp_3,8,28636,2,169,143,1,m,4,3256,273,hit,6,f,20,None,NA,1
EA_exp_3,8,28636,2,170,43,2,z,3,8550,539,cr,2,f,20,NA,NA,NA
EA_exp_3,8,28636,2,171,27,2,z,3,9541,225,cr,2,f,20,NA,NA,NA
EA_exp_3,8,28636,2,172,167,1,m,4,1437,218,hit,6,f,20,None,NA,1
EA_exp_3,8,28636,2,173,77,2,z,3,1730,503,cr,2,f,20,NA,NA,NA
EA_exp_3,8,28636,2,174,165,1,m,3,3475,450,hit,5,f,20,None,NA,1
EA_exp_3,8,28636,2,175,54,2,z,3,1024,321,cr,2,f,20,NA,NA,NA
EA_exp_3,8,28636,2,176,9,2,z,2,1574,800,cr,3,f,20,NA,NA,NA
EA_exp_3,8,28636,2,177,74,2,z,4,943,740,cr,1,f,20,NA,NA,NA
EA_exp_3,8,28636,2,178,130,1,z,4,1298,350,miss,1,f,20,None,NA,1
EA_exp_3,8,28636,2,179,18,2,z,4,1005,114,cr,1,f,20,NA,NA,NA
EA_exp_3,8,28636,2,180,150,1,z,4,785,121,miss,1,f,20,None,NA,1
EA_exp_3,8,28636,2,181,2,2,z,4,696,131,cr,1,f,20,NA,NA,NA
EA_exp_3,8,28636,2,182,69,2,z,4,720,173,cr,1,f,20,NA,NA,NA
EA_exp_3,8,28636,2,183,138,1,z,4,680,101,miss,1,f,20,None,NA,1
EA_exp_3,8,28636,2,184,20,2,z,4,578,70,cr,1,f,20,NA,NA,NA
EA_exp_3,8,28636,2,185,14,2,z,4,771,95,cr,1,f,20,NA,NA,NA
EA_exp_3,8,28636,2,186,60,2,z,4,764,791,cr,1,f,20,NA,NA,NA
EA_exp_3,8,28636,2,187,4,2,z,4,696,118,cr,1,f,20,NA,NA,NA
EA_exp_3,8,28636,2,188,134,1,z,4,721,79,miss,1,f,20,None,NA,1
EA_exp_3,8,28636,2,189,159,1,z,4,920,113,miss,1,f,20,None,NA,1
EA_exp_3,8,28636,2,190,133,1,m,2,1502,268,hit,4,f,20,None,NA,1
EA_exp_3,8,28636,2,191,37,2,m,3,1234,299,fa,5,f,20,NA,NA,NA
EA_exp_3,8,28636,2,192,104,1,m,1,1682,199,hit,4,f,20,None,NA,1
EA_exp_3,8,28636,2,193,110,1,m,4,1089,255,hit,6,f,20,None,NA,1
EA_exp_3,8,28636,2,194,127,1,m,4,1348,154,hit,6,f,20,None,NA,1
EA_exp_3,8,28636,2,195,45,2,z,1,3360,248,cr,3,f,20,NA,NA,NA
EA_exp_3,8,28636,2,196,78,2,z,2,1937,140,cr,3,f,20,NA,NA,NA
EA_exp_3,8,28636,2,197,24,2,z,1,1192,1890,cr,3,f,20,NA,NA,NA
EA_exp_3,8,28636,2,198,169,1,z,3,964,506,miss,2,f,20,None,NA,1
EA_exp_3,8,28636,2,199,125,1,m,2,1767,585,hit,4,f,20,None,NA,1
EA_exp_3,8,28636,2,200,83,2,m,3,1685,490,fa,5,f,20,NA,NA,NA
EA_exp_3,9,28635,2,1,107,1,m,4,2402,3433,hit,6,m,20,q,older,1
EA_exp_3,9,28635,2,2,19,2,m,3,2530,1173,fa,5,m,20,NA,NA,NA
EA_exp_3,9,28635,2,3,37,2,z,3,1961,1378,cr,2,m,20,NA,NA,NA
EA_exp_3,9,28635,2,4,133,1,m,4,1870,1372,hit,6,m,20,q,older,1
EA_exp_3,9,28635,2,5,83,2,z,3,1575,1051,cr,2,m,20,NA,NA,NA
EA_exp_3,9,28635,2,6,58,2,z,3,1384,1546,cr,2,m,20,NA,NA,NA
EA_exp_3,9,28635,2,7,32,2,z,3,1370,528,cr,2,m,20,NA,NA,NA
EA_exp_3,9,28635,2,8,147,1,m,3,1050,1324,hit,5,m,20,p,younger,1
EA_exp_3,9,28635,2,9,20,2,z,3,1319,1135,cr,2,m,20,NA,NA,NA
EA_exp_3,9,28635,2,10,49,2,z,4,1953,2509,cr,1,m,20,NA,NA,NA
EA_exp_3,9,28635,2,11,146,1,m,2,3496,1335,hit,4,m,20,q,older,1
EA_exp_3,9,28635,2,12,153,1,m,4,1570,574,hit,6,m,20,p,younger,1
EA_exp_3,9,28635,2,13,71,2,z,3,1528,693,cr,2,m,20,NA,NA,NA
EA_exp_3,9,28635,2,14,200,1,m,3,1947,1110,hit,5,m,20,q,older,1
EA_exp_3,9,28635,2,15,38,2,z,3,2314,344,cr,2,m,20,NA,NA,NA
EA_exp_3,9,28635,2,16,17,2,z,3,1947,390,cr,2,m,20,NA,NA,NA
EA_exp_3,9,28635,2,17,124,1,z,2,3131,341,miss,3,m,20,p,younger,1
EA_exp_3,9,28635,2,18,96,2,z,3,1545,405,cr,2,m,20,NA,NA,NA
EA_exp_3,9,28635,2,19,30,2,z,3,1124,418,cr,2,m,20,NA,NA,NA
EA_exp_3,9,28635,2,20,92,2,z,3,1602,524,cr,2,m,20,NA,NA,NA
EA_exp_3,9,28635,2,21,10,2,z,4,1304,414,cr,1,m,20,NA,NA,NA
EA_exp_3,9,28635,2,22,129,1,m,4,1950,987,hit,6,m,20,q,older,1
EA_exp_3,9,28635,2,23,7,2,z,3,1411,854,cr,2,m,20,NA,NA,NA
EA_exp_3,9,28635,2,24,193,1,m,3,5380,279,hit,5,m,20,q,older,1
EA_exp_3,9,28635,2,25,106,1,m,4,1550,121,hit,6,m,20,q,older,1
EA_exp_3,9,28635,2,26,131,1,m,4,1127,770,hit,6,m,20,q,older,1
EA_exp_3,9,28635,2,27,93,2,z,3,1330,1240,cr,2,m,20,NA,NA,NA
EA_exp_3,9,28635,2,28,141,1,m,4,938,1276,hit,6,m,20,p,younger,1
EA_exp_3,9,28635,2,29,136,1,z,2,1501,1400,miss,3,m,20,q,older,1
EA_exp_3,9,28635,2,30,56,2,z,3,1423,593,cr,2,m,20,NA,NA,NA
