exp,idx,cbcond,trial,stimID,cond,KP_zm,KP_conf,RT_zm,RT_conf,hmfc,rating16,sex_kp_mfor,age_kp
EA_exp_1a,1,2,1,43,2,m,4,1676,2866,fa,6,male,22
EA_exp_1a,1,2,2,108,1,m,4,1966,332,hit,6,male,22
EA_exp_1a,1,2,3,8,2,z,2,4336,2268,cr,3,male,22
EA_exp_1a,1,2,4,33,2,z,4,3397,1220,cr,1,male,22
EA_exp_1a,1,2,5,70,2,m,3,3668,701,fa,5,male,22
EA_exp_1a,1,2,6,3,2,m,4,1216,427,fa,6,male,22
EA_exp_1a,1,2,7,17,2,z,2,3785,956,cr,3,male,22
EA_exp_1a,1,2,8,12,2,z,4,1541,1220,cr,1,male,22
EA_exp_1a,1,2,9,80,2,z,4,849,795,cr,1,male,22
EA_exp_1a,1,2,10,173,1,m,2,2940,1408,hit,4,male,22
EA_exp_1a,1,2,11,185,1,m,4,2618,458,hit,6,male,22
EA_exp_1a,1,2,12,59,2,z,4,1082,823,cr,1,male,22
EA_exp_1a,1,2,13,156,1,z,3,2361,451,miss,2,male,22
EA_exp_1a,1,2,14,29,2,z,2,5521,895,cr,3,male,22
EA_exp_1a,1,2,15,58,2,z,4,1258,2644,cr,1,male,22
EA_exp_1a,1,2,16,9,2,z,4,713,648,cr,1,male,22
EA_exp_1a,1,2,17,61,2,z,4,1681,230,cr,1,male,22
EA_exp_1a,1,2,18,91,2,z,4,496,420,cr,1,male,22
EA_exp_1a,1,2,19,102,1,m,3,1572,1119,hit,5,male,22
EA_exp_1a,1,2,20,134,1,z,4,1138,271,miss,1,male,22
EA_exp_1a,1,2,21,24,2,z,4,1045,197,cr,1,male,22
EA_exp_1a,1,2,22,67,2,z,4,1408,129,cr,1,male,22
EA_exp_1a,1,2,23,194,1,z,4,941,144,miss,1,male,22
EA_exp_1a,1,2,24,199,1,m,4,1178,102,hit,6,male,22
EA_exp_1a,1,2,25,28,2,z,4,1652,346,cr,1,male,22
EA_exp_1a,1,2,26,137,1,m,4,1366,208,hit,6,male,22
EA_exp_1a,1,2,27,93,2,z,4,1257,592,cr,1,male,22
EA_exp_1a,1,2,28,141,1,z,3,1931,422,miss,2,male,22
EA_exp_1a,1,2,29,7,2,z,2,1223,607,cr,3,male,22
EA_exp_1a,1,2,30,82,2,z,4,1401,410,cr,1,male,22
EA_exp_1a,1,2,31,167,1,z,3,1914,137,miss,2,male,22
EA_exp_1a,1,2,32,5,2,z,4,1923,144,cr,1,male,22
EA_exp_1a,1,2,33,196,1,z,4,1514,344,miss,1,male,22
EA_exp_1a,1,2,34,72,2,z,4,1278,147,cr,1,male,22
EA_exp_1a,1,2,35,71,2,z,1,2364,937,cr,3,male,22
EA_exp_1a,1,2,36,155,1,z,3,1348,600,miss,2,male,22
EA_exp_1a,1,2,37,160,1,z,4,2835,122,miss,1,male,22
EA_exp_1a,1,2,38,66,2,z,4,1013,247,cr,1,male,22
EA_exp_1a,1,2,39,101,1,z,4,559,225,miss,1,male,22
EA_exp_1a,1,2,40,150,1,z,4,377,164,miss,1,male,22
EA_exp_1a,1,2,41,26,2,z,4,719,28,cr,1,male,22
EA_exp_1a,1,2,42,16,2,z,4,1382,191,cr,1,male,22
EA_exp_1a,1,2,43,107,1,z,4,697,86,miss,1,male,22
EA_exp_1a,1,2,44,62,2,z,4,723,80,cr,1,male,22
EA_exp_1a,1,2,45,54,2,z,4,684,28,cr,1,male,22
EA_exp_1a,1,2,46,2,2,z,4,906,674,cr,1,male,22
EA_exp_1a,1,2,47,152,1,z,4,680,70,miss,1,male,22
EA_exp_1a,1,2,48,49,2,z,4,1283,75,cr,1,male,22
EA_exp_1a,1,2,49,37,2,z,4,602,91,cr,1,male,22
EA_exp_1a,1,2,50,170,1,z,4,632,73,miss,1,male,22
EA_exp_1a,1,2,51,74,2,z,4,708,148,cr,1,male,22
EA_exp_1a,1,2,52,132,1,z,4,834,105,miss,1,male,22
EA_exp_1a,1,2,53,115,1,z,4,1031,102,miss,1,male,22
EA_exp_1a,1,2,54,39,2,z,4,978,166,cr,1,male,22
EA_exp_1a,1,2,55,159,1,z,4,627,64,miss,1,male,22
EA_exp_1a,1,2,56,55,2,z,4,3791,49,cr,1,male,22
EA_exp_1a,1,2,57,188,1,m,4,1377,131,hit,6,male,22
EA_exp_1a,1,2,58,25,2,z,4,862,231,cr,1,male,22
EA_exp_1a,1,2,59,13,2,z,4,777,73,cr,1,male,22
EA_exp_1a,1,2,60,41,2,m,3,1479,214,fa,5,male,22
EA_exp_1a,1,2,61,106,1,m,4,910,243,hit,6,male,22
EA_exp_1a,1,2,62,95,2,z,4,1514,88,cr,1,male,22
EA_exp_1a,1,2,63,51,2,z,2,2854,1294,cr,3,male,22
EA_exp_1a,1,2,64,78,2,z,4,1436,156,cr,1,male,22
EA_exp_1a,1,2,65,158,1,m,4,1081,101,hit,6,male,22
EA_exp_1a,1,2,66,144,1,z,3,2049,314,miss,2,male,22
EA_exp_1a,1,2,67,89,2,m,4,817,168,fa,6,male,22
EA_exp_1a,1,2,68,90,2,z,4,930,838,cr,1,male,22
EA_exp_1a,1,2,69,1,2,z,4,1013,407,cr,1,male,22
EA_exp_1a,1,2,70,190,1,z,4,603,58,miss,1,male,22
EA_exp_1a,1,2,71,46,2,z,4,904,112,cr,1,male,22
EA_exp_1a,1,2,72,21,2,m,2,2218,797,fa,4,male,22
EA_exp_1a,1,2,73,14,2,z,4,1341,82,cr,1,male,22
EA_exp_1a,1,2,74,94,2,z,4,2081,231,cr,1,male,22
EA_exp_1a,1,2,75,69,2,z,4,715,140,cr,1,male,22
EA_exp_1a,1,2,76,125,1,m,4,1064,151,hit,6,male,22
EA_exp_1a,1,2,77,48,2,m,3,2690,128,fa,5,male,22
EA_exp_1a,1,2,78,168,1,z,4,651,91,miss,1,male,22
EA_exp_1a,1,2,79,98,2,z,4,1144,69,cr,1,male,22
EA_exp_1a,1,2,80,32,2,z,4,596,196,cr,1,male,22
EA_exp_1a,1,2,81,6,2,z,4,558,113,cr,1,male,22
EA_exp_1a,1,2,82,114,1,z,1,1068,1565,miss,3,male,22
EA_exp_1a,1,2,83,186,1,z,4,786,75,miss,1,male,22
EA_exp_1a,1,2,84,119,1,z,4,1111,86,miss,1,male,22
EA_exp_1a,1,2,85,22,2,z,4,1091,81,cr,1,male,22
EA_exp_1a,1,2,86,153,1,z,4,751,75,miss,1,male,22
EA_exp_1a,1,2,87,139,1,z,4,1258,64,miss,1,male,22
EA_exp_1a,1,2,88,126,1,m,4,1151,380,hit,6,male,22
EA_exp_1a,1,2,89,112,1,z,4,1134,74,miss,1,male,22
EA_exp_1a,1,2,90,193,1,m,3,1323,333,hit,5,male,22
EA_exp_1a,1,2,91,154,1,z,4,969,66,miss,1,male,22
EA_exp_1a,1,2,92,97,2,z,4,1746,69,cr,1,male,22
EA_exp_1a,1,2,93,157,1,m,4,947,232,hit,6,male,22
EA_exp_1a,1,2,94,143,1,m,4,945,83,hit,6,male,22
EA_exp_1a,1,2,95,120,1,m,4,739,142,hit,6,male,22
EA_exp_1a,1,2,96,81,2,z,4,874,80,cr,1,male,22
EA_exp_1a,1,2,97,105,1,z,4,1566,73,miss,1,male,22
EA_exp_1a,1,2,98,64,2,z,4,792,97,cr,1,male,22
EA_exp_1a,1,2,99,162,1,z,4,561,82,miss,1,male,22
EA_exp_1a,1,2,100,166,1,m,4,930,181,hit,6,male,22
EA_exp_1a,1,2,101,57,2,z,4,718,92,cr,1,male,22
EA_exp_1a,1,2,102,180,1,z,4,1067,184,miss,1,male,22
EA_exp_1a,1,2,103,44,2,z,4,498,104,cr,1,male,22
EA_exp_1a,1,2,104,175,1,m,3,5509,242,hit,5,male,22
EA_exp_1a,1,2,105,164,1,z,4,795,132,miss,1,male,22
EA_exp_1a,1,2,106,30,2,m,4,942,291,fa,6,male,22
EA_exp_1a,1,2,107,45,2,m,2,2263,648,fa,4,male,22
EA_exp_1a,1,2,108,36,2,m,1,1499,205,fa,4,male,22
EA_exp_1a,1,2,109,140,1,z,4,758,82,miss,1,male,22
EA_exp_1a,1,2,110,31,2,z,4,766,75,cr,1,male,22
EA_exp_1a,1,2,111,149,1,z,4,950,61,miss,1,male,22
EA_exp_1a,1,2,112,178,1,m,4,1787,190,hit,6,male,22
EA_exp_1a,1,2,113,96,2,z,4,663,71,cr,1,male,22
EA_exp_1a,1,2,114,116,1,m,4,982,200,hit,6,male,22
EA_exp_1a,1,2,115,146,1,z,4,1665,23,miss,1,male,22
EA_exp_1a,1,2,116,19,2,m,3,1162,180,fa,5,male,22
EA_exp_1a,1,2,117,195,1,z,1,2175,1264,miss,3,male,22
EA_exp_1a,1,2,118,198,1,z,4,1282,118,miss,1,male,22
EA_exp_1a,1,2,119,174,1,m,2,5138,238,hit,4,male,22
EA_exp_1a,1,2,120,118,1,z,4,2120,75,miss,1,male,22
EA_exp_1a,1,2,121,110,1,z,4,1209,66,miss,1,male,22
EA_exp_1a,1,2,122,23,2,z,4,928,117,cr,1,male,22
EA_exp_1a,1,2,123,52,2,z,4,1139,110,cr,1,male,22
EA_exp_1a,1,2,124,127,1,z,4,871,98,miss,1,male,22
EA_exp_1a,1,2,125,129,1,z,4,784,25,miss,1,male,22
EA_exp_1a,1,2,126,130,1,m,4,1485,152,hit,6,male,22
EA_exp_1a,1,2,127,10,2,z,4,980,54,cr,1,male,22
EA_exp_1a,1,2,128,75,2,z,4,1156,64,cr,1,male,22
EA_exp_1a,1,2,129,124,1,m,4,1325,115,hit,6,male,22
EA_exp_1a,1,2,130,192,1,z,4,815,73,miss,1,male,22
EA_exp_1a,1,2,131,128,1,z,4,1687,46,miss,1,male,22
EA_exp_1a,1,2,132,131,1,m,4,684,108,hit,6,male,22
EA_exp_1a,1,2,133,165,1,m,4,1433,105,hit,6,male,22
EA_exp_1a,1,2,134,50,2,z,2,2071,189,cr,3,male,22
EA_exp_1a,1,2,135,117,1,m,1,1429,1558,hit,4,male,22
EA_exp_1a,1,2,136,121,1,m,4,2924,799,hit,6,male,22
EA_exp_1a,1,2,137,83,2,z,4,1264,264,cr,1,male,22
EA_exp_1a,1,2,138,183,1,m,4,1245,358,hit,6,male,22
EA_exp_1a,1,2,139,145,1,z,4,1447,72,miss,1,male,22
EA_exp_1a,1,2,140,77,2,z,4,685,53,cr,1,male,22
EA_exp_1a,1,2,141,147,1,m,3,789,606,hit,5,male,22
EA_exp_1a,1,2,142,104,1,z,4,1096,149,miss,1,male,22
EA_exp_1a,1,2,143,151,1,z,4,642,64,miss,1,male,22
EA_exp_1a,1,2,144,47,2,z,4,655,159,cr,1,male,22
EA_exp_1a,1,2,145,100,2,m,3,1339,222,fa,5,male,22
EA_exp_1a,1,2,146,148,1,m,4,982,217,hit,6,male,22
EA_exp_1a,1,2,147,35,2,m,2,2080,680,fa,4,male,22
EA_exp_1a,1,2,148,38,2,z,4,1642,133,cr,1,male,22
EA_exp_1a,1,2,149,111,1,z,4,685,128,miss,1,male,22
EA_exp_1a,1,2,150,177,1,z,4,1002,77,miss,1,male,22
EA_exp_1a,1,2,151,86,2,m,3,2009,1939,fa,5,male,22
EA_exp_1a,1,2,152,76,2,z,4,1175,67,cr,1,male,22
EA_exp_1a,1,2,153,63,2,z,4,1088,62,cr,1,male,22
EA_exp_1a,1,2,154,109,1,z,1,783,1207,miss,3,male,22
EA_exp_1a,1,2,155,122,1,m,4,1624,257,hit,6,male,22
EA_exp_1a,1,2,156,169,1,m,4,995,154,hit,6,male,22
EA_exp_1a,1,2,157,92,2,z,4,1269,76,cr,1,male,22
EA_exp_1a,1,2,158,176,1,m,4,2091,128,hit,6,male,22
EA_exp_1a,1,2,159,181,1,m,4,1279,194,hit,6,male,22
EA_exp_1a,1,2,160,85,2,z,4,923,64,cr,1,male,22
EA_exp_1a,1,2,161,184,1,m,2,1472,718,hit,4,male,22
EA_exp_1a,1,2,162,136,1,m,4,1445,147,hit,6,male,22
EA_exp_1a,1,2,163,99,2,z,4,1486,60,cr,1,male,22
EA_exp_1a,1,2,164,133,1,z,4,571,46,miss,1,male,22
EA_exp_1a,1,2,165,88,2,z,4,748,74,cr,1,male,22
EA_exp_1a,1,2,166,187,1,m,4,1031,104,hit,6,male,22
EA_exp_1a,1,2,167,87,2,z,4,1401,23,cr,1,male,22
EA_exp_1a,1,2,168,103,1,m,4,758,66,hit,6,male,22
EA_exp_1a,1,2,169,42,2,z,4,1263,72,cr,1,male,22
EA_exp_1a,1,2,170,200,1,m,4,902,92,hit,6,male,22
EA_exp_1a,1,2,171,142,1,z,4,667,72,miss,1,male,22
EA_exp_1a,1,2,172,163,1,z,1,816,991,miss,3,male,22
EA_exp_1a,1,2,173,20,2,z,4,1528,101,cr,1,male,22
EA_exp_1a,1,2,174,18,2,z,4,1043,114,cr,1,male,22
EA_exp_1a,1,2,175,171,1,m,2,960,1890,hit,4,male,22
EA_exp_1a,1,2,176,138,1,m,4,1191,82,hit,6,male,22
EA_exp_1a,1,2,177,113,1,m,4,1152,107,hit,6,male,22
EA_exp_1a,1,2,178,191,1,z,4,682,135,miss,1,male,22
EA_exp_1a,1,2,179,27,2,z,4,686,96,cr,1,male,22
EA_exp_1a,1,2,180,11,2,z,4,687,109,cr,1,male,22
EA_exp_1a,1,2,181,123,1,m,4,856,144,hit,6,male,22
EA_exp_1a,1,2,182,56,2,z,4,728,120,cr,1,male,22
EA_exp_1a,1,2,183,172,1,m,4,918,153,hit,6,male,22
EA_exp_1a,1,2,184,189,1,z,4,1031,564,miss,1,male,22
EA_exp_1a,1,2,185,53,2,z,3,928,308,cr,2,male,22
EA_exp_1a,1,2,186,135,1,z,4,810,49,miss,1,male,22
EA_exp_1a,1,2,187,34,2,z,4,640,112,cr,1,male,22
EA_exp_1a,1,2,188,79,2,z,4,1200,55,cr,1,male,22
EA_exp_1a,1,2,189,60,2,z,4,526,74,cr,1,male,22
EA_exp_1a,1,2,190,73,2,z,4,728,69,cr,1,male,22
EA_exp_1a,1,2,191,182,1,m,4,980,118,hit,6,male,22
EA_exp_1a,1,2,192,15,2,z,4,979,68,cr,1,male,22
EA_exp_1a,1,2,193,197,1,m,3,2676,497,hit,5,male,22
EA_exp_1a,1,2,194,84,2,z,4,1551,90,cr,1,male,22
EA_exp_1a,1,2,195,65,2,z,4,1146,68,cr,1,male,22
EA_exp_1a,1,2,196,4,2,z,4,898,72,cr,1,male,22
EA_exp_1a,1,2,197,161,1,m,4,1942,129,hit,6,male,22
EA_exp_1a,1,2,198,68,2,m,1,668,1133,fa,4,male,22
EA_exp_1a,1,2,199,179,1,z,3,1265,104,miss,2,male,22
EA_exp_1a,1,2,200,40,2,z,4,1140,96,cr,1,male,22
EA_exp_1a,2,2,1,157,1,m,3,3848,2403,hit,5,female,19
EA_exp_1a,2,2,2,5,2,m,4,3011,820,fa,6,female,19
EA_exp_1a,2,2,3,198,1,z,1,4705,1905,miss,3,female,19
EA_exp_1a,2,2,4,66,2,z,1,5094,869,cr,3,female,19
EA_exp_1a,2,2,5,37,2,m,3,2516,1223,fa,5,female,19
EA_exp_1a,2,2,6,197,1,z,1,5992,1665,miss,3,female,19
EA_exp_1a,2,2,7,191,1,m,1,1793,514,hit,4,female,19
EA_exp_1a,2,2,8,43,2,z,2,3244,1511,cr,3,female,19
EA_exp_1a,2,2,9,41,2,z,2,1511,1082,cr,3,female,19
EA_exp_1a,2,2,10,78,2,z,1,4190,1281,cr,3,female,19
EA_exp_1a,2,2,11,21,2,m,2,3757,1794,fa,4,female,19
EA_exp_1a,2,2,12,87,2,z,2,2347,905,cr,3,female,19
EA_exp_1a,2,2,13,44,2,z,2,6995,646,cr,3,female,19
EA_exp_1a,2,2,14,200,1,m,2,5596,1191,hit,4,female,19
EA_exp_1a,2,2,15,182,1,z,2,2330,1156,miss,3,female,19
EA_exp_1a,2,2,16,183,1,m,3,2304,1126,hit,5,female,19
EA_exp_1a,2,2,17,155,1,z,2,2026,498,miss,3,female,19
EA_exp_1a,2,2,18,112,1,z,1,2129,1573,miss,3,female,19
EA_exp_1a,2,2,19,160,1,m,3,1176,721,hit,5,female,19
EA_exp_1a,2,2,20,133,1,m,3,1591,383,hit,5,female,19
EA_exp_1a,2,2,21,127,1,z,2,1440,592,miss,3,female,19
EA_exp_1a,2,2,22,26,2,z,2,2488,592,cr,3,female,19
EA_exp_1a,2,2,23,60,2,z,2,1546,677,cr,3,female,19
EA_exp_1a,2,2,24,64,2,z,3,1401,1325,cr,2,female,19
EA_exp_1a,2,2,25,138,1,z,2,2282,856,miss,3,female,19
EA_exp_1a,2,2,26,144,1,m,2,1226,1343,hit,4,female,19
EA_exp_1a,2,2,27,142,1,m,3,1641,850,hit,5,female,19
EA_exp_1a,2,2,28,40,2,z,2,1218,1594,cr,3,female,19
EA_exp_1a,2,2,29,17,2,z,3,1947,1048,cr,2,female,19
EA_exp_1a,2,2,30,18,2,z,2,1527,764,cr,3,female,19
EA_exp_1a,2,2,31,55,2,m,2,3473,686,fa,4,female,19
EA_exp_1a,2,2,32,147,1,z,2,3108,2353,miss,3,female,19
EA_exp_1a,2,2,33,188,1,m,2,7108,1248,hit,4,female,19
EA_exp_1a,2,2,34,137,1,m,2,4291,815,hit,4,female,19
EA_exp_1a,2,2,35,170,1,m,2,1679,710,hit,4,female,19
EA_exp_1a,2,2,36,132,1,z,3,2041,883,miss,2,female,19
EA_exp_1a,2,2,37,88,2,z,2,2865,600,cr,3,female,19
EA_exp_1a,2,2,38,148,1,m,2,1503,831,hit,4,female,19
EA_exp_1a,2,2,39,23,2,z,2,2144,947,cr,3,female,19
EA_exp_1a,2,2,40,27,2,z,2,2459,533,cr,3,female,19
EA_exp_1a,2,2,41,2,2,m,2,3424,801,fa,4,female,19
EA_exp_1a,2,2,42,149,1,m,2,5106,2415,hit,4,female,19
EA_exp_1a,2,2,43,49,2,z,2,3089,1055,cr,3,female,19
EA_exp_1a,2,2,44,129,1,m,2,3175,704,hit,4,female,19
EA_exp_1a,2,2,45,13,2,z,2,3953,512,cr,3,female,19
EA_exp_1a,2,2,46,185,1,m,2,2492,963,hit,4,female,19
EA_exp_1a,2,2,47,10,2,z,2,4397,1095,cr,3,female,19
EA_exp_1a,2,2,48,151,1,z,2,1564,552,miss,3,female,19
EA_exp_1a,2,2,49,146,1,z,2,1891,481,miss,3,female,19
EA_exp_1a,2,2,50,63,2,z,2,1232,391,cr,3,female,19
EA_exp_1a,2,2,51,153,1,m,4,1304,719,hit,6,female,19
EA_exp_1a,2,2,52,4,2,m,2,4099,489,fa,4,female,19
EA_exp_1a,2,2,53,38,2,z,2,1605,608,cr,3,female,19
EA_exp_1a,2,2,54,181,1,m,2,1641,1136,hit,4,female,19
EA_exp_1a,2,2,55,81,2,m,2,4437,797,fa,4,female,19
EA_exp_1a,2,2,56,114,1,m,3,3374,545,hit,5,female,19
EA_exp_1a,2,2,57,80,2,z,2,1501,538,cr,3,female,19
EA_exp_1a,2,2,58,19,2,z,2,4292,1923,cr,3,female,19
EA_exp_1a,2,2,59,31,2,z,2,1590,770,cr,3,female,19
EA_exp_1a,2,2,60,168,1,z,2,2786,638,miss,3,female,19
EA_exp_1a,2,2,61,156,1,m,2,1463,1317,hit,4,female,19
EA_exp_1a,2,2,62,165,1,m,2,1418,706,hit,4,female,19
EA_exp_1a,2,2,63,24,2,z,2,2660,566,cr,3,female,19
EA_exp_1a,2,2,64,121,1,z,3,1378,931,miss,2,female,19
EA_exp_1a,2,2,65,103,1,m,4,1231,1079,hit,6,female,19
EA_exp_1a,2,2,66,62,2,z,2,4270,541,cr,3,female,19
EA_exp_1a,2,2,67,15,2,z,2,4281,550,cr,3,female,19
EA_exp_1a,2,2,68,196,1,z,3,1700,1112,miss,2,female,19
EA_exp_1a,2,2,69,174,1,m,2,1998,966,hit,4,female,19
EA_exp_1a,2,2,70,47,2,z,2,3729,582,cr,3,female,19
EA_exp_1a,2,2,71,76,2,z,2,1838,399,cr,3,female,19
EA_exp_1a,2,2,72,104,1,m,3,2272,1024,hit,5,female,19
EA_exp_1a,2,2,73,67,2,z,2,1813,568,cr,3,female,19
EA_exp_1a,2,2,74,79,2,z,3,1573,1999,cr,2,female,19
EA_exp_1a,2,2,75,139,1,m,4,1678,677,hit,6,female,19
EA_exp_1a,2,2,76,28,2,z,3,2653,603,cr,2,female,19
EA_exp_1a,2,2,77,192,1,z,2,2740,881,miss,3,female,19
EA_exp_1a,2,2,78,123,1,m,4,1369,514,hit,6,female,19
EA_exp_1a,2,2,79,45,2,m,2,5083,605,fa,4,female,19
EA_exp_1a,2,2,80,51,2,z,2,1701,779,cr,3,female,19
EA_exp_1a,2,2,81,86,2,z,2,1455,445,cr,3,female,19
EA_exp_1a,2,2,82,184,1,m,2,3228,693,hit,4,female,19
EA_exp_1a,2,2,83,199,1,z,2,2062,514,miss,3,female,19
EA_exp_1a,2,2,84,109,1,m,3,4047,966,hit,5,female,19
EA_exp_1a,2,2,85,25,2,z,2,4801,1034,cr,3,female,19
EA_exp_1a,2,2,86,14,2,m,3,3857,737,fa,5,female,19
EA_exp_1a,2,2,87,186,1,z,2,2852,668,miss,3,female,19
EA_exp_1a,2,2,88,131,1,m,2,2022,795,hit,4,female,19
EA_exp_1a,2,2,89,100,2,z,2,1855,445,cr,3,female,19
EA_exp_1a,2,2,90,46,2,z,3,1595,454,cr,2,female,19
EA_exp_1a,2,2,91,102,1,z,3,1523,514,miss,2,female,19
EA_exp_1a,2,2,92,32,2,z,2,1377,1137,cr,3,female,19
EA_exp_1a,2,2,93,115,1,z,2,3011,374,miss,3,female,19
EA_exp_1a,2,2,94,9,2,m,2,2216,681,fa,4,female,19
EA_exp_1a,2,2,95,95,2,z,4,1545,1755,cr,1,female,19
EA_exp_1a,2,2,96,3,2,z,2,2165,553,cr,3,female,19
EA_exp_1a,2,2,97,34,2,z,2,2662,547,cr,3,female,19
EA_exp_1a,2,2,98,92,2,z,2,2333,395,cr,3,female,19
EA_exp_1a,2,2,99,61,2,m,2,2620,878,fa,4,female,19
EA_exp_1a,2,2,100,68,2,z,2,3837,908,cr,3,female,19
EA_exp_1a,2,2,101,33,2,z,2,1749,1309,cr,3,female,19
EA_exp_1a,2,2,102,82,2,m,2,2455,1265,fa,4,female,19
EA_exp_1a,2,2,103,105,1,m,4,1649,1080,hit,6,female,19
EA_exp_1a,2,2,104,8,2,z,2,1819,1663,cr,3,female,19
EA_exp_1a,2,2,105,128,1,z,2,2637,639,miss,3,female,19
EA_exp_1a,2,2,106,135,1,z,2,2183,360,miss,3,female,19
EA_exp_1a,2,2,107,84,2,m,2,1627,1012,fa,4,female,19
EA_exp_1a,2,2,108,167,1,m,4,4972,575,hit,6,female,19
EA_exp_1a,2,2,109,69,2,z,2,2073,2848,cr,3,female,19
EA_exp_1a,2,2,110,145,1,z,2,1534,412,miss,3,female,19
EA_exp_1a,2,2,111,118,1,m,4,1427,525,hit,6,female,19
EA_exp_1a,2,2,112,180,1,z,2,3740,412,miss,3,female,19
EA_exp_1a,2,2,113,70,2,z,2,2097,340,cr,3,female,19
EA_exp_1a,2,2,114,35,2,m,2,1674,559,fa,4,female,19
EA_exp_1a,2,2,115,20,2,m,2,4295,583,fa,4,female,19
EA_exp_1a,2,2,116,136,1,z,2,2066,392,miss,3,female,19
EA_exp_1a,2,2,117,126,1,m,2,3195,708,hit,4,female,19
EA_exp_1a,2,2,118,169,1,z,2,1883,343,miss,3,female,19
EA_exp_1a,2,2,119,29,2,z,2,2058,370,cr,3,female,19
EA_exp_1a,2,2,120,130,1,m,4,1571,464,hit,6,female,19
EA_exp_1a,2,2,121,178,1,z,2,2465,308,miss,3,female,19
EA_exp_1a,2,2,122,143,1,z,3,2492,1262,miss,2,female,19
EA_exp_1a,2,2,123,42,2,m,2,2462,613,fa,4,female,19
EA_exp_1a,2,2,124,71,2,m,2,2253,990,fa,4,female,19
EA_exp_1a,2,2,125,152,1,z,2,2709,533,miss,3,female,19
EA_exp_1a,2,2,126,119,1,z,2,2527,854,miss,3,female,19
EA_exp_1a,2,2,127,101,1,z,3,2348,479,miss,2,female,19
EA_exp_1a,2,2,128,159,1,m,3,1680,1636,hit,5,female,19
EA_exp_1a,2,2,129,195,1,z,3,1779,662,miss,2,female,19
EA_exp_1a,2,2,130,108,1,m,4,2653,973,hit,6,female,19
EA_exp_1a,2,2,131,162,1,z,2,2692,437,miss,3,female,19
EA_exp_1a,2,2,132,111,1,z,2,2293,514,miss,3,female,19
EA_exp_1a,2,2,133,124,1,m,2,2256,687,hit,4,female,19
EA_exp_1a,2,2,134,50,2,z,2,1782,503,cr,3,female,19
EA_exp_1a,2,2,135,125,1,z,2,2306,689,miss,3,female,19
EA_exp_1a,2,2,136,120,1,m,2,1574,545,hit,4,female,19
EA_exp_1a,2,2,137,106,1,m,4,1725,545,hit,6,female,19
EA_exp_1a,2,2,138,173,1,z,2,2763,472,miss,3,female,19
EA_exp_1a,2,2,139,98,2,z,3,1879,596,cr,2,female,19
EA_exp_1a,2,2,140,52,2,m,2,1935,906,fa,4,female,19
EA_exp_1a,2,2,141,11,2,z,2,2265,614,cr,3,female,19
EA_exp_1a,2,2,142,161,1,m,1,2161,754,hit,4,female,19
EA_exp_1a,2,2,143,194,1,z,2,3181,654,miss,3,female,19
EA_exp_1a,2,2,144,158,1,m,4,1943,674,hit,6,female,19
EA_exp_1a,2,2,145,140,1,m,4,1701,750,hit,6,female,19
EA_exp_1a,2,2,146,58,2,z,2,1583,555,cr,3,female,19
EA_exp_1a,2,2,147,73,2,z,2,1428,711,cr,3,female,19
EA_exp_1a,2,2,148,172,1,z,2,3069,331,miss,3,female,19
EA_exp_1a,2,2,149,93,2,z,1,1136,1276,cr,3,female,19
EA_exp_1a,2,2,150,177,1,m,2,1403,1004,hit,4,female,19
EA_exp_1a,2,2,151,189,1,z,1,3574,784,miss,3,female,19
EA_exp_1a,2,2,152,99,2,z,1,945,277,cr,3,female,19
EA_exp_1a,2,2,153,56,2,m,1,1677,658,fa,4,female,19
EA_exp_1a,2,2,154,113,1,m,1,2490,670,hit,4,female,19
EA_exp_1a,2,2,155,94,2,z,1,2867,813,cr,3,female,19
EA_exp_1a,2,2,156,12,2,z,1,2748,393,cr,3,female,19
EA_exp_1a,2,2,157,22,2,m,2,2679,745,fa,4,female,19
EA_exp_1a,2,2,158,97,2,z,2,1885,426,cr,3,female,19
EA_exp_1a,2,2,159,171,1,z,2,2167,381,miss,3,female,19
EA_exp_1a,2,2,160,77,2,m,2,1648,617,fa,4,female,19
EA_exp_1a,2,2,161,36,2,z,2,9407,498,cr,3,female,19
EA_exp_1a,2,2,162,164,1,m,2,3778,657,hit,4,female,19
EA_exp_1a,2,2,163,57,2,z,2,5609,1202,cr,3,female,19
EA_exp_1a,2,2,164,54,2,z,2,6356,431,cr,3,female,19
EA_exp_1a,2,2,165,122,1,m,4,1407,865,hit,6,female,19
EA_exp_1a,2,2,166,7,2,z,2,2624,351,cr,3,female,19
EA_exp_1a,2,2,167,134,1,m,2,1586,508,hit,4,female,19
EA_exp_1a,2,2,168,48,2,z,1,2460,736,cr,3,female,19
EA_exp_1a,2,2,169,96,2,z,1,774,286,cr,3,female,19
EA_exp_1a,2,2,170,190,1,z,1,1141,272,miss,3,female,19
EA_exp_1a,2,2,171,65,2,m,2,1590,704,fa,4,female,19
EA_exp_1a,2,2,172,1,2,z,2,2485,748,cr,3,female,19
EA_exp_1a,2,2,173,89,2,z,2,1727,419,cr,3,female,19
EA_exp_1a,2,2,174,154,1,z,2,1523,384,miss,3,female,19
EA_exp_1a,2,2,175,39,2,m,2,2612,1602,fa,4,female,19
EA_exp_1a,2,2,176,53,2,m,2,6213,708,fa,4,female,19
EA_exp_1a,2,2,177,90,2,z,2,1271,431,cr,3,female,19
EA_exp_1a,2,2,178,83,2,z,2,1997,313,cr,3,female,19
EA_exp_1a,2,2,179,175,1,m,2,1534,554,hit,4,female,19
EA_exp_1a,2,2,180,85,2,m,2,1193,703,fa,4,female,19
EA_exp_1a,2,2,181,75,2,z,2,1878,610,cr,3,female,19
EA_exp_1a,2,2,182,91,2,z,2,1051,2283,cr,3,female,19
EA_exp_1a,2,2,183,59,2,z,2,1200,892,cr,3,female,19
EA_exp_1a,2,2,184,117,1,m,1,1771,875,hit,4,female,19
EA_exp_1a,2,2,185,72,2,z,2,4859,928,cr,3,female,19
EA_exp_1a,2,2,186,187,1,m,1,3516,746,hit,4,female,19
EA_exp_1a,2,2,187,150,1,z,2,3216,567,miss,3,female,19
EA_exp_1a,2,2,188,141,1,m,1,2336,957,hit,4,female,19
EA_exp_1a,2,2,189,16,2,z,2,7961,563,cr,3,female,19
EA_exp_1a,2,2,190,6,2,z,3,1373,577,cr,2,female,19
EA_exp_1a,2,2,191,163,1,m,4,2425,707,hit,6,female,19
EA_exp_1a,2,2,192,107,1,z,2,4263,806,miss,3,female,19
EA_exp_1a,2,2,193,166,1,m,4,1495,1637,hit,6,female,19
EA_exp_1a,2,2,194,116,1,z,2,3829,485,miss,3,female,19
EA_exp_1a,2,2,195,74,2,z,2,6419,812,cr,3,female,19
EA_exp_1a,2,2,196,179,1,z,1,1322,545,miss,3,female,19
EA_exp_1a,2,2,197,176,1,z,2,2571,703,miss,3,female,19
EA_exp_1a,2,2,198,30,2,z,2,1796,423,cr,3,female,19
EA_exp_1a,2,2,199,110,1,m,4,1494,1140,hit,6,female,19
EA_exp_1a,2,2,200,193,1,z,2,2408,465,miss,3,female,19
EA_exp_1a,3,1,1,84,1,z,3,4896,5487,miss,2,female,18
EA_exp_1a,3,1,2,184,2,m,2,10817,1566,fa,4,female,18
EA_exp_1a,3,1,3,42,1,m,4,2832,776,hit,6,female,18
EA_exp_1a,3,1,4,67,1,z,3,2238,1788,miss,2,female,18
EA_exp_1a,3,1,5,79,1,m,3,2467,3532,hit,5,female,18
EA_exp_1a,3,1,6,55,1,z,4,1935,1437,miss,1,female,18
EA_exp_1a,3,1,7,65,1,m,4,3124,1265,hit,6,female,18
EA_exp_1a,3,1,8,164,2,z,1,6427,1448,cr,3,female,18
EA_exp_1a,3,1,9,6,1,z,2,1918,765,miss,3,female,18
EA_exp_1a,3,1,10,131,2,z,3,2173,882,cr,2,female,18
EA_exp_1a,3,1,11,21,1,z,1,2463,472,miss,3,female,18
EA_exp_1a,3,1,12,29,1,z,3,2262,549,miss,2,female,18
EA_exp_1a,3,1,13,25,1,z,2,1968,717,miss,3,female,18
EA_exp_1a,3,1,14,46,1,m,4,2431,873,hit,6,female,18
EA_exp_1a,3,1,15,189,2,z,4,2022,1183,cr,1,female,18
EA_exp_1a,3,1,16,14,1,m,4,1854,1152,hit,6,female,18
EA_exp_1a,3,1,17,134,2,z,2,2196,885,cr,3,female,18
EA_exp_1a,3,1,18,163,2,z,1,2194,580,cr,3,female,18
EA_exp_1a,3,1,19,167,2,z,4,2091,532,cr,1,female,18
EA_exp_1a,3,1,20,51,1,z,2,2578,995,miss,3,female,18
EA_exp_1a,3,1,21,179,2,z,4,2760,775,cr,1,female,18
EA_exp_1a,3,1,22,102,2,z,2,2697,647,cr,3,female,18
EA_exp_1a,3,1,23,93,1,m,2,3534,747,hit,4,female,18
EA_exp_1a,3,1,24,87,1,m,4,1313,517,hit,6,female,18
EA_exp_1a,3,1,25,27,1,m,4,1218,554,hit,6,female,18
EA_exp_1a,3,1,26,62,1,z,2,3030,597,miss,3,female,18
EA_exp_1a,3,1,27,188,2,z,1,10398,616,cr,3,female,18
EA_exp_1a,3,1,28,77,1,m,4,1951,1853,hit,6,female,18
EA_exp_1a,3,1,29,96,1,m,4,2324,1088,hit,6,female,18
EA_exp_1a,3,1,30,40,1,m,4,1512,675,hit,6,female,18
EA_exp_1a,3,1,31,45,1,m,4,1767,717,hit,6,female,18
EA_exp_1a,3,1,32,49,1,z,2,2643,385,miss,3,female,18
EA_exp_1a,3,1,33,180,2,z,2,2738,815,cr,3,female,18
EA_exp_1a,3,1,34,193,2,z,3,6993,433,cr,2,female,18
EA_exp_1a,3,1,35,7,1,m,2,1538,717,hit,4,female,18
EA_exp_1a,3,1,36,60,1,m,4,1470,576,hit,6,female,18
EA_exp_1a,3,1,37,28,1,m,4,1228,483,hit,6,female,18
EA_exp_1a,3,1,38,199,2,z,2,2034,441,cr,3,female,18
EA_exp_1a,3,1,39,43,1,z,4,1785,987,miss,1,female,18
EA_exp_1a,3,1,40,66,1,m,4,1586,463,hit,6,female,18
EA_exp_1a,3,1,41,89,1,m,4,1405,640,hit,6,female,18
EA_exp_1a,3,1,42,41,1,m,4,2534,572,hit,6,female,18
EA_exp_1a,3,1,43,138,2,z,3,2804,831,cr,2,female,18
EA_exp_1a,3,1,44,64,1,m,2,5036,1247,hit,4,female,18
EA_exp_1a,3,1,45,1,1,m,4,1517,619,hit,6,female,18
EA_exp_1a,3,1,46,140,2,z,3,2304,543,cr,2,female,18
EA_exp_1a,3,1,47,125,2,z,1,2009,1077,cr,3,female,18
EA_exp_1a,3,1,48,18,1,m,4,1837,443,hit,6,female,18
EA_exp_1a,3,1,49,152,2,z,1,2381,902,cr,3,female,18
EA_exp_1a,3,1,50,111,2,m,3,1280,697,fa,5,female,18
EA_exp_1a,3,1,51,144,2,m,3,6012,440,fa,5,female,18
EA_exp_1a,3,1,52,132,2,z,4,1545,1667,cr,1,female,18
EA_exp_1a,3,1,53,183,2,m,2,1440,546,fa,4,female,18
EA_exp_1a,3,1,54,20,1,z,1,1982,696,miss,3,female,18
EA_exp_1a,3,1,55,115,2,z,2,1774,496,cr,3,female,18
EA_exp_1a,3,1,56,57,1,m,4,1817,446,hit,6,female,18
EA_exp_1a,3,1,57,103,2,m,3,3707,546,fa,5,female,18
EA_exp_1a,3,1,58,186,2,z,2,4362,712,cr,3,female,18
EA_exp_1a,3,1,59,129,2,z,3,2285,1387,cr,2,female,18
EA_exp_1a,3,1,60,156,2,z,2,2984,455,cr,3,female,18
EA_exp_1a,3,1,61,38,1,m,4,1458,487,hit,6,female,18
EA_exp_1a,3,1,62,147,2,z,3,2274,562,cr,2,female,18
EA_exp_1a,3,1,63,121,2,z,4,1500,475,cr,1,female,18
EA_exp_1a,3,1,64,52,1,m,4,2007,946,hit,6,female,18
EA_exp_1a,3,1,65,98,1,z,4,2236,623,miss,1,female,18
EA_exp_1a,3,1,66,178,2,z,2,1779,504,cr,3,female,18
EA_exp_1a,3,1,67,19,1,m,4,1685,540,hit,6,female,18
EA_exp_1a,3,1,68,191,2,m,3,1862,518,fa,5,female,18
EA_exp_1a,3,1,69,85,1,m,3,1270,474,hit,5,female,18
EA_exp_1a,3,1,70,128,2,z,1,1658,480,cr,3,female,18
EA_exp_1a,3,1,71,198,2,z,2,3388,431,cr,3,female,18
EA_exp_1a,3,1,72,165,2,z,2,1932,429,cr,3,female,18
EA_exp_1a,3,1,73,26,1,m,3,1593,549,hit,5,female,18
EA_exp_1a,3,1,74,194,2,z,2,5328,421,cr,3,female,18
EA_exp_1a,3,1,75,160,2,z,4,5259,540,cr,1,female,18
EA_exp_1a,3,1,76,185,2,m,3,2664,407,fa,5,female,18
EA_exp_1a,3,1,77,53,1,z,3,2331,2373,miss,2,female,18
EA_exp_1a,3,1,78,99,1,z,1,3204,400,miss,3,female,18
EA_exp_1a,3,1,79,120,2,m,2,3936,558,fa,4,female,18
EA_exp_1a,3,1,80,48,1,m,4,1462,503,hit,6,female,18
EA_exp_1a,3,1,81,159,2,z,3,2114,442,cr,2,female,18
EA_exp_1a,3,1,82,123,2,z,3,1462,520,cr,2,female,18
EA_exp_1a,3,1,83,154,2,z,3,1440,420,cr,2,female,18
EA_exp_1a,3,1,84,9,1,m,4,1351,472,hit,6,female,18
EA_exp_1a,3,1,85,56,1,m,4,1072,485,hit,6,female,18
EA_exp_1a,3,1,86,149,2,m,2,1649,842,fa,4,female,18
EA_exp_1a,3,1,87,16,1,m,3,1803,556,hit,5,female,18
EA_exp_1a,3,1,88,74,1,m,4,2102,396,hit,6,female,18
EA_exp_1a,3,1,89,177,2,z,4,2397,535,cr,1,female,18
EA_exp_1a,3,1,90,141,2,z,4,1809,436,cr,1,female,18
EA_exp_1a,3,1,91,137,2,m,3,1347,487,fa,5,female,18
EA_exp_1a,3,1,92,35,1,m,4,1460,467,hit,6,female,18
EA_exp_1a,3,1,93,112,2,z,3,1755,981,cr,2,female,18
EA_exp_1a,3,1,94,22,1,m,3,1968,603,hit,5,female,18
EA_exp_1a,3,1,95,73,1,m,4,1330,440,hit,6,female,18
EA_exp_1a,3,1,96,24,1,z,2,2983,666,miss,3,female,18
EA_exp_1a,3,1,97,116,2,z,4,2367,603,cr,1,female,18
EA_exp_1a,3,1,98,127,2,m,4,1459,516,fa,6,female,18
EA_exp_1a,3,1,99,10,1,z,3,1999,618,miss,2,female,18
EA_exp_1a,3,1,100,135,2,z,4,1792,740,cr,1,female,18
EA_exp_1a,3,1,101,124,2,m,3,1382,522,fa,5,female,18
EA_exp_1a,3,1,102,143,2,z,4,1831,439,cr,1,female,18
EA_exp_1a,3,1,103,90,1,m,4,1314,476,hit,6,female,18
EA_exp_1a,3,1,104,33,1,z,3,1852,489,miss,2,female,18
EA_exp_1a,3,1,105,108,2,z,1,1737,460,cr,3,female,18
EA_exp_1a,3,1,106,139,2,m,1,4346,854,fa,4,female,18
EA_exp_1a,3,1,107,150,2,m,1,1602,575,fa,4,female,18
EA_exp_1a,3,1,108,34,1,m,2,2215,570,hit,4,female,18
EA_exp_1a,3,1,109,126,2,m,3,2709,417,fa,5,female,18
EA_exp_1a,3,1,110,114,2,m,3,1439,433,fa,5,female,18
EA_exp_1a,3,1,111,110,2,m,3,1647,616,fa,5,female,18
EA_exp_1a,3,1,112,100,1,z,3,2288,415,miss,2,female,18
EA_exp_1a,3,1,113,76,1,z,3,2545,499,miss,2,female,18
EA_exp_1a,3,1,114,4,1,z,3,1472,432,miss,2,female,18
EA_exp_1a,3,1,115,91,1,m,4,1343,532,hit,6,female,18
EA_exp_1a,3,1,116,81,1,m,4,1246,520,hit,6,female,18
EA_exp_1a,3,1,117,37,1,m,3,1828,452,hit,5,female,18
EA_exp_1a,3,1,118,169,2,z,3,4452,459,cr,2,female,18
EA_exp_1a,3,1,119,15,1,m,4,1660,433,hit,6,female,18
EA_exp_1a,3,1,120,13,1,m,2,2735,526,hit,4,female,18
EA_exp_1a,3,1,121,190,2,m,3,2906,496,fa,5,female,18
EA_exp_1a,3,1,122,197,2,m,2,3659,453,fa,4,female,18
EA_exp_1a,3,1,123,71,1,m,4,1502,369,hit,6,female,18
EA_exp_1a,3,1,124,31,1,m,4,2178,533,hit,6,female,18
EA_exp_1a,3,1,125,142,2,z,3,1721,694,cr,2,female,18
EA_exp_1a,3,1,126,161,2,z,3,1484,441,cr,2,female,18
EA_exp_1a,3,1,127,104,2,z,3,2056,1616,cr,2,female,18
EA_exp_1a,3,1,128,105,2,z,4,1536,2942,cr,1,female,18
EA_exp_1a,3,1,129,50,1,m,3,1608,499,hit,5,female,18
EA_exp_1a,3,1,130,30,1,m,4,1344,404,hit,6,female,18
EA_exp_1a,3,1,131,70,1,m,4,2436,1229,hit,6,female,18
EA_exp_1a,3,1,132,153,2,z,2,5276,724,cr,3,female,18
EA_exp_1a,3,1,133,88,1,z,1,2279,470,miss,3,female,18
EA_exp_1a,3,1,134,97,1,m,4,1334,408,hit,6,female,18
EA_exp_1a,3,1,135,113,2,m,2,3193,484,fa,4,female,18
EA_exp_1a,3,1,136,168,2,m,2,1343,436,fa,4,female,18
EA_exp_1a,3,1,137,58,1,m,4,1384,471,hit,6,female,18
EA_exp_1a,3,1,138,39,1,m,4,1526,466,hit,6,female,18
EA_exp_1a,3,1,139,78,1,z,2,6738,382,miss,3,female,18
EA_exp_1a,3,1,140,8,1,m,3,1469,478,hit,5,female,18
EA_exp_1a,3,1,141,72,1,z,3,1757,656,miss,2,female,18
EA_exp_1a,3,1,142,195,2,z,3,1486,437,cr,2,female,18
EA_exp_1a,3,1,143,94,1,m,4,1859,403,hit,6,female,18
EA_exp_1a,3,1,144,32,1,m,4,1315,392,hit,6,female,18
EA_exp_1a,3,1,145,107,2,z,3,2409,1491,cr,2,female,18
EA_exp_1a,3,1,146,44,1,z,1,2970,524,miss,3,female,18
EA_exp_1a,3,1,147,2,1,z,2,1787,378,miss,3,female,18
EA_exp_1a,3,1,148,36,1,m,3,2716,459,hit,5,female,18
EA_exp_1a,3,1,149,47,1,m,4,1415,458,hit,6,female,18
EA_exp_1a,3,1,150,162,2,z,3,12057,513,cr,2,female,18
EA_exp_1a,3,1,151,82,1,m,2,1275,563,hit,4,female,18
EA_exp_1a,3,1,152,136,2,m,3,7871,461,fa,5,female,18
EA_exp_1a,3,1,153,5,1,m,3,1882,826,hit,5,female,18
EA_exp_1a,3,1,154,83,1,z,3,1529,376,miss,2,female,18
EA_exp_1a,3,1,155,68,1,m,4,1286,416,hit,6,female,18
EA_exp_1a,3,1,156,119,2,m,4,1516,397,fa,6,female,18
EA_exp_1a,3,1,157,151,2,z,3,1408,496,cr,2,female,18
EA_exp_1a,3,1,158,155,2,z,4,923,753,cr,1,female,18
EA_exp_1a,3,1,159,187,2,m,4,1426,1332,fa,6,female,18
EA_exp_1a,3,1,160,170,2,z,3,1489,1583,cr,2,female,18
EA_exp_1a,3,1,161,196,2,m,3,1345,709,fa,5,female,18
EA_exp_1a,3,1,162,130,2,m,4,1560,1124,fa,6,female,18
EA_exp_1a,3,1,163,106,2,z,4,2537,364,cr,1,female,18
EA_exp_1a,3,1,164,181,2,z,3,1423,449,cr,2,female,18
EA_exp_1a,3,1,165,166,2,z,3,1965,603,cr,2,female,18
EA_exp_1a,3,1,166,95,1,m,4,1330,441,hit,6,female,18
EA_exp_1a,3,1,167,200,2,z,3,2229,505,cr,2,female,18
EA_exp_1a,3,1,168,172,2,m,3,1952,416,fa,5,female,18
EA_exp_1a,3,1,169,109,2,m,1,2273,543,fa,4,female,18
EA_exp_1a,3,1,170,12,1,m,4,1608,563,hit,6,female,18
EA_exp_1a,3,1,171,158,2,z,4,4446,823,cr,1,female,18
EA_exp_1a,3,1,172,86,1,m,4,1202,399,hit,6,female,18
EA_exp_1a,3,1,173,75,1,m,4,1248,392,hit,6,female,18
EA_exp_1a,3,1,174,23,1,m,4,1475,425,hit,6,female,18
EA_exp_1a,3,1,175,145,2,z,4,1464,393,cr,1,female,18
EA_exp_1a,3,1,176,63,1,m,4,1193,451,hit,6,female,18
EA_exp_1a,3,1,177,92,1,m,3,1360,581,hit,5,female,18
EA_exp_1a,3,1,178,61,1,m,4,1199,425,hit,6,female,18
EA_exp_1a,3,1,179,182,2,z,3,1947,453,cr,2,female,18
EA_exp_1a,3,1,180,146,2,z,3,7397,550,cr,2,female,18
EA_exp_1a,3,1,181,69,1,z,2,1808,419,miss,3,female,18
EA_exp_1a,3,1,182,192,2,z,3,1586,398,cr,2,female,18
EA_exp_1a,3,1,183,117,2,m,2,1213,648,fa,4,female,18
EA_exp_1a,3,1,184,176,2,z,4,1953,763,cr,1,female,18
EA_exp_1a,3,1,185,122,2,z,3,1929,410,cr,2,female,18
EA_exp_1a,3,1,186,101,2,m,1,3130,632,fa,4,female,18
EA_exp_1a,3,1,187,80,1,z,4,10110,453,miss,1,female,18
EA_exp_1a,3,1,188,133,2,z,3,1619,477,cr,2,female,18
EA_exp_1a,3,1,189,173,2,z,2,1853,1275,cr,3,female,18
EA_exp_1a,3,1,190,175,2,z,3,2039,1137,cr,2,female,18
EA_exp_1a,3,1,191,54,1,z,4,2436,509,miss,1,female,18
EA_exp_1a,3,1,192,17,1,z,2,2461,946,miss,3,female,18
EA_exp_1a,3,1,193,171,2,z,4,2076,547,cr,1,female,18
EA_exp_1a,3,1,194,118,2,m,4,2109,659,fa,6,female,18
EA_exp_1a,3,1,195,157,2,m,2,1961,518,fa,4,female,18
EA_exp_1a,3,1,196,3,1,m,2,1821,514,hit,4,female,18
EA_exp_1a,3,1,197,59,1,m,4,1265,503,hit,6,female,18
EA_exp_1a,3,1,198,174,2,m,4,1092,609,fa,6,female,18
EA_exp_1a,3,1,199,148,2,z,4,5209,819,cr,1,female,18
EA_exp_1a,3,1,200,11,1,z,4,1413,1236,miss,1,female,18
EA_exp_1a,4,1,1,61,1,m,4,3243,1805,hit,6,female,19
EA_exp_1a,4,1,2,198,2,z,4,3043,1750,cr,1,female,19
EA_exp_1a,4,1,3,125,2,z,2,5323,1077,cr,3,female,19
EA_exp_1a,4,1,4,162,2,z,4,2091,624,cr,1,female,19
EA_exp_1a,4,1,5,87,1,m,3,1961,1764,hit,5,female,19
EA_exp_1a,4,1,6,187,2,z,2,2396,1657,cr,3,female,19
EA_exp_1a,4,1,7,8,1,z,2,1786,555,miss,3,female,19
EA_exp_1a,4,1,8,52,1,z,3,1303,2251,miss,2,female,19
EA_exp_1a,4,1,9,88,1,z,3,1745,821,miss,2,female,19
EA_exp_1a,4,1,10,171,2,z,2,1492,852,cr,3,female,19
EA_exp_1a,4,1,11,133,2,z,2,1731,903,cr,3,female,19
EA_exp_1a,4,1,12,160,2,z,3,1302,553,cr,2,female,19
EA_exp_1a,4,1,13,115,2,z,3,1189,558,cr,2,female,19
EA_exp_1a,4,1,14,60,1,m,1,3273,335,hit,4,female,19
EA_exp_1a,4,1,15,74,1,m,4,1010,548,hit,6,female,19
EA_exp_1a,4,1,16,176,2,z,2,1521,493,cr,3,female,19
EA_exp_1a,4,1,17,80,1,m,4,1478,649,hit,6,female,19
EA_exp_1a,4,1,18,189,2,z,3,1356,627,cr,2,female,19
EA_exp_1a,4,1,19,33,1,z,1,2633,1372,miss,3,female,19
EA_exp_1a,4,1,20,152,2,z,1,1493,1252,cr,3,female,19
EA_exp_1a,4,1,21,63,1,z,2,1715,393,miss,3,female,19
EA_exp_1a,4,1,22,78,1,m,4,1642,626,hit,6,female,19
EA_exp_1a,4,1,23,46,1,m,4,3465,681,hit,6,female,19
EA_exp_1a,4,1,24,37,1,m,3,1646,695,hit,5,female,19
EA_exp_1a,4,1,25,90,1,m,4,937,480,hit,6,female,19
EA_exp_1a,4,1,26,195,2,z,2,2112,788,cr,3,female,19
EA_exp_1a,4,1,27,82,1,z,2,1287,476,miss,3,female,19
EA_exp_1a,4,1,28,168,2,z,2,1606,451,cr,3,female,19
EA_exp_1a,4,1,29,170,2,z,3,1489,1583,cr,2,female,19
EA_exp_1a,4,1,30,56,1,m,4,1169,364,hit,6,female,19
EA_exp_1a,4,1,31,31,1,m,4,958,690,hit,6,female,19
EA_exp_1a,4,1,32,48,1,m,3,1736,332,hit,5,female,19
EA_exp_1a,4,1,33,30,1,m,3,864,280,hit,5,female,19
EA_exp_1a,4,1,34,141,2,z,2,1471,428,cr,3,female,19
EA_exp_1a,4,1,35,98,1,m,4,1196,678,hit,6,female,19
EA_exp_1a,4,1,36,199,2,z,3,3548,440,cr,2,female,19
EA_exp_1a,4,1,37,188,2,z,2,1370,811,cr,3,female,19
EA_exp_1a,4,1,38,83,1,z,2,1262,451,miss,3,female,19
EA_exp_1a,4,1,39,66,1,m,2,1873,460,hit,4,female,19
EA_exp_1a,4,1,40,190,2,z,4,1358,1826,cr,1,female,19
EA_exp_1a,4,1,41,120,2,z,2,1309,463,cr,3,female,19
EA_exp_1a,4,1,42,35,1,m,2,973,1025,hit,4,female,19
EA_exp_1a,4,1,43,107,2,z,2,1082,344,cr,3,female,19
EA_exp_1a,4,1,44,126,2,m,1,1561,966,fa,4,female,19
EA_exp_1a,4,1,45,76,1,z,3,1118,654,miss,2,female,19
EA_exp_1a,4,1,46,81,1,z,2,2835,285,miss,3,female,19
EA_exp_1a,4,1,47,55,1,z,2,1140,687,miss,3,female,19
EA_exp_1a,4,1,48,110,2,z,2,834,269,cr,3,female,19
EA_exp_1a,4,1,49,94,1,m,3,2368,462,hit,5,female,19
EA_exp_1a,4,1,50,24,1,z,2,1861,364,miss,3,female,19
EA_exp_1a,4,1,51,132,2,z,4,1439,511,cr,1,female,19
EA_exp_1a,4,1,52,89,1,z,2,1261,355,miss,3,female,19
EA_exp_1a,4,1,53,45,1,z,3,1234,462,miss,2,female,19
EA_exp_1a,4,1,54,23,1,m,4,1263,818,hit,6,female,19
EA_exp_1a,4,1,55,15,1,m,2,3316,586,hit,4,female,19
EA_exp_1a,4,1,56,130,2,z,4,947,1031,cr,1,female,19
EA_exp_1a,4,1,57,18,1,m,4,1486,1038,hit,6,female,19
EA_exp_1a,4,1,58,5,1,z,2,2214,358,miss,3,female,19
EA_exp_1a,4,1,59,11,1,z,2,1304,287,miss,3,female,19
EA_exp_1a,4,1,60,25,1,m,3,2133,1049,hit,5,female,19
EA_exp_1a,4,1,61,65,1,m,4,2257,335,hit,6,female,19
EA_exp_1a,4,1,62,64,1,z,1,1251,666,miss,3,female,19
EA_exp_1a,4,1,63,173,2,z,3,1215,585,cr,2,female,19
EA_exp_1a,4,1,64,21,1,z,3,596,341,miss,2,female,19
EA_exp_1a,4,1,65,16,1,m,4,1142,388,hit,6,female,19
EA_exp_1a,4,1,66,10,1,m,4,919,251,hit,6,female,19
EA_exp_1a,4,1,67,167,2,z,4,1375,1268,cr,1,female,19
EA_exp_1a,4,1,68,139,2,z,4,992,405,cr,1,female,19
EA_exp_1a,4,1,69,4,1,z,2,661,1428,miss,3,female,19
EA_exp_1a,4,1,70,1,1,z,3,908,722,miss,2,female,19
EA_exp_1a,4,1,71,138,2,z,3,694,292,cr,2,female,19
EA_exp_1a,4,1,72,14,1,m,4,1084,503,hit,6,female,19
EA_exp_1a,4,1,73,183,2,m,2,981,1191,fa,4,female,19
EA_exp_1a,4,1,74,172,2,z,4,776,723,cr,1,female,19
EA_exp_1a,4,1,75,36,1,m,4,1587,417,hit,6,female,19
EA_exp_1a,4,1,76,72,1,z,1,1572,475,miss,3,female,19
EA_exp_1a,4,1,77,184,2,z,4,1100,937,cr,1,female,19
EA_exp_1a,4,1,78,159,2,z,4,1909,497,cr,1,female,19
EA_exp_1a,4,1,79,85,1,z,3,1280,342,miss,2,female,19
EA_exp_1a,4,1,80,156,2,m,2,1160,388,fa,4,female,19
EA_exp_1a,4,1,81,3,1,z,1,1782,344,miss,3,female,19
EA_exp_1a,4,1,82,131,2,z,4,959,782,cr,1,female,19
EA_exp_1a,4,1,83,196,2,z,4,1103,335,cr,1,female,19
EA_exp_1a,4,1,84,157,2,z,3,642,370,cr,2,female,19
EA_exp_1a,4,1,85,19,1,z,1,486,1899,miss,3,female,19
EA_exp_1a,4,1,86,68,1,z,4,2083,790,miss,1,female,19
EA_exp_1a,4,1,87,40,1,z,4,1290,383,miss,1,female,19
EA_exp_1a,4,1,88,27,1,z,4,621,449,miss,1,female,19
EA_exp_1a,4,1,89,53,1,z,4,752,285,miss,1,female,19
EA_exp_1a,4,1,90,7,1,m,4,898,1319,hit,6,female,19
EA_exp_1a,4,1,91,191,2,z,3,1798,1350,cr,2,female,19
EA_exp_1a,4,1,92,128,2,z,2,1055,544,cr,3,female,19
EA_exp_1a,4,1,93,39,1,m,2,1707,480,hit,4,female,19
EA_exp_1a,4,1,94,17,1,m,3,1806,623,hit,5,female,19
EA_exp_1a,4,1,95,122,2,z,4,952,1067,cr,1,female,19
EA_exp_1a,4,1,96,165,2,z,4,733,463,cr,1,female,19
EA_exp_1a,4,1,97,101,2,z,4,1134,697,cr,1,female,19
EA_exp_1a,4,1,98,12,1,m,3,1672,1030,hit,5,female,19
EA_exp_1a,4,1,99,113,2,z,4,733,1627,cr,1,female,19
EA_exp_1a,4,1,100,174,2,z,2,873,738,cr,3,female,19
EA_exp_1a,4,1,101,129,2,m,2,1203,767,fa,4,female,19
EA_exp_1a,4,1,102,116,2,z,3,480,967,cr,2,female,19
EA_exp_1a,4,1,103,96,1,z,3,1204,298,miss,2,female,19
EA_exp_1a,4,1,104,91,1,m,3,1216,714,hit,5,female,19
EA_exp_1a,4,1,105,104,2,z,4,635,1039,cr,1,female,19
EA_exp_1a,4,1,106,136,2,m,1,905,1036,fa,4,female,19
EA_exp_1a,4,1,107,92,1,m,4,1190,447,hit,6,female,19
EA_exp_1a,4,1,108,84,1,m,2,2142,562,hit,4,female,19
EA_exp_1a,4,1,109,182,2,z,3,540,1393,cr,2,female,19
EA_exp_1a,4,1,110,41,1,z,3,727,342,miss,2,female,19
EA_exp_1a,4,1,111,149,2,z,3,955,398,cr,2,female,19
EA_exp_1a,4,1,112,28,1,z,3,574,281,miss,2,female,19
EA_exp_1a,4,1,113,69,1,m,4,1160,850,hit,6,female,19
EA_exp_1a,4,1,114,127,2,z,2,1114,607,cr,3,female,19
EA_exp_1a,4,1,115,179,2,z,3,887,1439,cr,2,female,19
EA_exp_1a,4,1,116,103,2,z,2,1509,467,cr,3,female,19
EA_exp_1a,4,1,117,145,2,z,4,899,1223,cr,1,female,19
EA_exp_1a,4,1,118,54,1,m,3,824,895,hit,5,female,19
EA_exp_1a,4,1,119,26,1,z,2,1552,906,miss,3,female,19
EA_exp_1a,4,1,120,47,1,z,3,1397,1000,miss,2,female,19
EA_exp_1a,4,1,121,181,2,z,3,1008,385,cr,2,female,19
EA_exp_1a,4,1,122,140,2,z,3,465,330,cr,2,female,19
EA_exp_1a,4,1,123,153,2,z,3,810,279,cr,2,female,19
EA_exp_1a,4,1,124,158,2,z,3,778,296,cr,2,female,19
EA_exp_1a,4,1,125,169,2,m,3,843,549,fa,5,female,19
EA_exp_1a,4,1,126,34,1,z,3,828,234,miss,2,female,19
EA_exp_1a,4,1,127,123,2,z,4,1168,780,cr,1,female,19
EA_exp_1a,4,1,128,150,2,z,4,941,514,cr,1,female,19
EA_exp_1a,4,1,129,50,1,m,2,1232,471,hit,4,female,19
EA_exp_1a,4,1,130,29,1,z,4,762,1631,miss,1,female,19
EA_exp_1a,4,1,131,22,1,m,2,945,307,hit,4,female,19
EA_exp_1a,4,1,132,6,1,z,3,856,1696,miss,2,female,19
EA_exp_1a,4,1,133,105,2,z,4,877,436,cr,1,female,19
EA_exp_1a,4,1,134,146,2,m,2,1249,364,fa,4,female,19
EA_exp_1a,4,1,135,147,2,z,3,1324,498,cr,2,female,19
EA_exp_1a,4,1,136,200,2,m,2,4589,402,fa,4,female,19
EA_exp_1a,4,1,137,13,1,z,4,645,1378,miss,1,female,19
EA_exp_1a,4,1,138,20,1,z,3,2327,281,miss,2,female,19
EA_exp_1a,4,1,139,164,2,z,4,1134,459,cr,1,female,19
EA_exp_1a,4,1,140,75,1,m,3,989,541,hit,5,female,19
EA_exp_1a,4,1,141,79,1,z,3,1048,1768,miss,2,female,19
EA_exp_1a,4,1,142,185,2,z,2,1637,347,cr,3,female,19
EA_exp_1a,4,1,143,59,1,z,4,683,1341,miss,1,female,19
EA_exp_1a,4,1,144,86,1,m,3,5448,489,hit,5,female,19
EA_exp_1a,4,1,145,2,1,z,3,758,1009,miss,2,female,19
EA_exp_1a,4,1,146,106,2,z,2,1463,665,cr,3,female,19
EA_exp_1a,4,1,147,161,2,z,2,690,1342,cr,3,female,19
EA_exp_1a,4,1,148,73,1,z,1,729,775,miss,3,female,19
EA_exp_1a,4,1,149,118,2,z,4,1193,1010,cr,1,female,19
EA_exp_1a,4,1,150,97,1,z,4,1546,359,miss,1,female,19
EA_exp_1a,4,1,151,175,2,m,3,1049,889,fa,5,female,19
EA_exp_1a,4,1,152,42,1,m,4,1270,479,hit,6,female,19
EA_exp_1a,4,1,153,49,1,m,4,877,611,hit,6,female,19
EA_exp_1a,4,1,154,186,2,z,3,1212,613,cr,2,female,19
EA_exp_1a,4,1,155,102,2,z,3,587,784,cr,2,female,19
EA_exp_1a,4,1,156,70,1,z,2,947,405,miss,3,female,19
EA_exp_1a,4,1,157,57,1,z,2,772,336,miss,3,female,19
EA_exp_1a,4,1,158,192,2,m,3,1136,672,fa,5,female,19
EA_exp_1a,4,1,159,135,2,z,2,485,396,cr,3,female,19
EA_exp_1a,4,1,160,124,2,z,4,414,551,cr,1,female,19
EA_exp_1a,4,1,161,32,1,z,4,753,302,miss,1,female,19
EA_exp_1a,4,1,162,194,2,z,3,2066,474,cr,2,female,19
EA_exp_1a,4,1,163,109,2,z,4,1179,354,cr,1,female,19
EA_exp_1a,4,1,164,166,2,z,4,1271,332,cr,1,female,19
EA_exp_1a,4,1,165,142,2,z,4,816,298,cr,1,female,19
EA_exp_1a,4,1,166,121,2,z,4,621,256,cr,1,female,19
EA_exp_1a,4,1,167,99,1,m,3,918,1388,hit,5,female,19
EA_exp_1a,4,1,168,144,2,z,2,1272,316,cr,3,female,19
EA_exp_1a,4,1,169,197,2,z,3,687,719,cr,2,female,19
EA_exp_1a,4,1,170,112,2,z,3,819,284,cr,2,female,19
EA_exp_1a,4,1,171,119,2,z,3,1329,278,cr,2,female,19
EA_exp_1a,4,1,172,193,2,z,3,973,239,cr,2,female,19
EA_exp_1a,4,1,173,114,2,m,2,2183,585,fa,4,female,19
EA_exp_1a,4,1,174,178,2,z,3,1006,1156,cr,2,female,19
EA_exp_1a,4,1,175,177,2,z,4,856,783,cr,1,female,19
EA_exp_1a,4,1,176,38,1,z,4,785,299,miss,1,female,19
EA_exp_1a,4,1,177,180,2,z,4,704,255,cr,1,female,19
EA_exp_1a,4,1,178,93,1,m,4,920,651,hit,6,female,19
EA_exp_1a,4,1,179,134,2,z,4,1873,960,cr,1,female,19
EA_exp_1a,4,1,180,151,2,z,4,1292,289,cr,1,female,19
EA_exp_1a,4,1,181,117,2,z,4,978,313,cr,1,female,19
EA_exp_1a,4,1,182,62,1,z,4,798,264,miss,1,female,19
EA_exp_1a,4,1,183,155,2,z,4,798,215,cr,1,female,19
EA_exp_1a,4,1,184,100,1,z,4,1424,241,miss,1,female,19
EA_exp_1a,4,1,185,111,2,z,4,585,267,cr,1,female,19
EA_exp_1a,4,1,186,137,2,m,3,611,787,fa,5,female,19
EA_exp_1a,4,1,187,108,2,z,3,853,860,cr,2,female,19
EA_exp_1a,4,1,188,51,1,z,3,669,234,miss,2,female,19
EA_exp_1a,4,1,189,163,2,z,3,723,191,cr,2,female,19
EA_exp_1a,4,1,190,148,2,z,3,1379,218,cr,2,female,19
EA_exp_1a,4,1,191,71,1,m,3,1476,641,hit,5,female,19
EA_exp_1a,4,1,192,77,1,m,4,1273,1023,hit,6,female,19
EA_exp_1a,4,1,193,67,1,z,2,1015,328,miss,3,female,19
EA_exp_1a,4,1,194,58,1,z,4,1037,493,miss,1,female,19
EA_exp_1a,4,1,195,143,2,z,3,493,609,cr,2,female,19
EA_exp_1a,4,1,196,154,2,z,3,1276,240,cr,2,female,19
EA_exp_1a,4,1,197,9,1,m,4,1575,1554,hit,6,female,19
EA_exp_1a,4,1,198,95,1,z,2,1494,371,miss,3,female,19
EA_exp_1a,4,1,199,44,1,z,1,788,1967,miss,3,female,19
EA_exp_1a,4,1,200,43,1,z,3,2688,1967,miss,2,female,19
EA_exp_1a,5,1,1,49,1,z,3,4357,3755,miss,2,female,18
EA_exp_1a,5,1,2,182,2,m,3,2085,1742,fa,5,female,18
EA_exp_1a,5,1,3,140,2,z,2,5172,2628,cr,3,female,18
EA_exp_1a,5,1,4,3,1,m,3,3931,1928,hit,5,female,18
EA_exp_1a,5,1,5,65,1,z,3,2765,2311,miss,2,female,18
EA_exp_1a,5,1,6,38,1,m,2,2492,2562,hit,4,female,18
EA_exp_1a,5,1,7,187,2,m,2,2702,1051,fa,4,female,18
EA_exp_1a,5,1,8,62,1,m,2,4017,1994,hit,4,female,18
EA_exp_1a,5,1,9,66,1,m,4,3500,1402,hit,6,female,18
EA_exp_1a,5,1,10,35,1,z,1,3621,1196,miss,3,female,18
EA_exp_1a,5,1,11,106,2,z,3,2753,2362,cr,2,female,18
EA_exp_1a,5,1,12,80,1,m,3,2992,2220,hit,5,female,18
EA_exp_1a,5,1,13,179,2,z,2,2551,2459,cr,3,female,18
EA_exp_1a,5,1,14,137,2,m,2,5078,1384,fa,4,female,18
EA_exp_1a,5,1,15,46,1,m,4,2885,1815,hit,6,female,18
EA_exp_1a,5,1,16,8,1,z,2,2078,1815,miss,3,female,18
EA_exp_1a,5,1,17,113,2,z,2,2147,931,cr,3,female,18
EA_exp_1a,5,1,18,161,2,m,2,3341,930,fa,4,female,18
EA_exp_1a,5,1,19,132,2,z,3,1436,672,cr,2,female,18
EA_exp_1a,5,1,20,162,2,z,2,3123,657,cr,3,female,18
EA_exp_1a,5,1,21,121,2,z,3,1847,2599,cr,2,female,18
EA_exp_1a,5,1,22,143,2,z,3,2542,1190,cr,2,female,18
EA_exp_1a,5,1,23,112,2,z,3,1881,1508,cr,2,female,18
EA_exp_1a,5,1,24,25,1,m,4,2999,1435,hit,6,female,18
EA_exp_1a,5,1,25,145,2,z,2,2193,917,cr,3,female,18
EA_exp_1a,5,1,26,149,2,m,2,1954,2845,fa,4,female,18
EA_exp_1a,5,1,27,153,2,z,3,2553,879,cr,2,female,18
EA_exp_1a,5,1,28,1,1,m,2,2684,1178,hit,4,female,18
EA_exp_1a,5,1,29,14,1,z,2,8653,4508,miss,3,female,18
EA_exp_1a,5,1,30,88,1,m,4,2331,2135,hit,6,female,18
EA_exp_1a,5,1,31,27,1,z,3,1666,1082,miss,2,female,18
EA_exp_1a,5,1,32,181,2,m,2,3314,1621,fa,4,female,18
EA_exp_1a,5,1,33,15,1,z,3,1571,720,miss,2,female,18
EA_exp_1a,5,1,34,98,1,m,4,1808,965,hit,6,female,18
EA_exp_1a,5,1,35,199,2,z,2,3679,1127,cr,3,female,18
EA_exp_1a,5,1,36,18,1,m,2,3882,1032,hit,4,female,18
EA_exp_1a,5,1,37,196,2,z,3,1568,763,cr,2,female,18
EA_exp_1a,5,1,38,150,2,z,2,1549,1001,cr,3,female,18
EA_exp_1a,5,1,39,17,1,m,3,2626,947,hit,5,female,18
EA_exp_1a,5,1,40,159,2,z,2,1658,675,cr,3,female,18
EA_exp_1a,5,1,41,21,1,z,2,1788,478,miss,3,female,18
EA_exp_1a,5,1,42,170,2,z,3,1965,1016,cr,2,female,18
EA_exp_1a,5,1,43,130,2,z,2,1616,761,cr,3,female,18
EA_exp_1a,5,1,44,48,1,z,2,5196,1222,miss,3,female,18
EA_exp_1a,5,1,45,135,2,z,2,1447,388,cr,3,female,18
EA_exp_1a,5,1,46,167,2,z,2,3415,1352,cr,3,female,18
EA_exp_1a,5,1,47,89,1,m,3,1651,1563,hit,5,female,18
EA_exp_1a,5,1,48,157,2,z,2,1608,1096,cr,3,female,18
EA_exp_1a,5,1,49,103,2,m,2,2668,1516,fa,4,female,18
EA_exp_1a,5,1,50,59,1,m,4,1183,603,hit,6,female,18
EA_exp_1a,5,1,51,57,1,m,4,1394,614,hit,6,female,18
EA_exp_1a,5,1,52,13,1,m,3,1806,637,hit,5,female,18
EA_exp_1a,5,1,53,120,2,z,2,1559,482,cr,3,female,18
EA_exp_1a,5,1,54,39,1,z,2,1374,450,miss,3,female,18
EA_exp_1a,5,1,55,16,1,m,2,3811,1106,hit,4,female,18
EA_exp_1a,5,1,56,173,2,z,2,1575,434,cr,3,female,18
EA_exp_1a,5,1,57,67,1,z,3,3346,726,miss,2,female,18
EA_exp_1a,5,1,58,7,1,z,3,3433,282,miss,2,female,18
EA_exp_1a,5,1,59,126,2,z,3,1535,813,cr,2,female,18
EA_exp_1a,5,1,60,93,1,m,2,2077,915,hit,4,female,18
EA_exp_1a,5,1,61,148,2,m,3,5731,2869,fa,5,female,18
EA_exp_1a,5,1,62,29,1,m,3,1938,510,hit,5,female,18
EA_exp_1a,5,1,63,53,1,z,2,1371,386,miss,3,female,18
EA_exp_1a,5,1,64,142,2,z,3,3123,717,cr,2,female,18
EA_exp_1a,5,1,65,6,1,z,2,3152,463,miss,3,female,18
EA_exp_1a,5,1,66,198,2,z,4,3968,2488,cr,1,female,18
EA_exp_1a,5,1,67,69,1,z,2,2932,362,miss,3,female,18
EA_exp_1a,5,1,68,61,1,m,3,1935,1528,hit,5,female,18
EA_exp_1a,5,1,69,97,1,m,2,4131,912,hit,4,female,18
EA_exp_1a,5,1,70,141,2,z,2,1420,430,cr,3,female,18
EA_exp_1a,5,1,71,68,1,m,2,2460,2071,hit,4,female,18
EA_exp_1a,5,1,72,200,2,z,3,1571,445,cr,2,female,18
EA_exp_1a,5,1,73,116,2,z,2,1501,364,cr,3,female,18
EA_exp_1a,5,1,74,71,1,z,1,5326,2083,miss,3,female,18
EA_exp_1a,5,1,75,114,2,z,2,2851,776,cr,3,female,18
EA_exp_1a,5,1,76,33,1,m,2,3465,1354,hit,4,female,18
EA_exp_1a,5,1,77,41,1,m,3,2872,907,hit,5,female,18
EA_exp_1a,5,1,78,165,2,z,2,2517,653,cr,3,female,18
EA_exp_1a,5,1,79,177,2,z,2,1428,372,cr,3,female,18
EA_exp_1a,5,1,80,92,1,m,4,2048,831,hit,6,female,18
EA_exp_1a,5,1,81,36,1,z,2,2943,401,miss,3,female,18
EA_exp_1a,5,1,82,11,1,m,3,3253,748,hit,5,female,18
EA_exp_1a,5,1,83,108,2,z,2,1486,365,cr,3,female,18
EA_exp_1a,5,1,84,99,1,z,2,3536,316,miss,3,female,18
EA_exp_1a,5,1,85,2,1,z,2,4861,376,miss,3,female,18
EA_exp_1a,5,1,86,147,2,m,2,4810,1171,fa,4,female,18
EA_exp_1a,5,1,87,175,2,z,1,5641,779,cr,3,female,18
EA_exp_1a,5,1,88,83,1,m,4,1662,887,hit,6,female,18
EA_exp_1a,5,1,89,174,2,z,3,2885,1115,cr,2,female,18
EA_exp_1a,5,1,90,133,2,z,2,2621,1264,cr,3,female,18
EA_exp_1a,5,1,91,52,1,m,2,2468,1590,hit,4,female,18
EA_exp_1a,5,1,92,169,2,z,2,1527,372,cr,3,female,18
EA_exp_1a,5,1,93,78,1,z,2,1673,652,miss,3,female,18
EA_exp_1a,5,1,94,10,1,z,2,1155,494,miss,3,female,18
EA_exp_1a,5,1,95,40,1,z,2,1307,432,miss,3,female,18
EA_exp_1a,5,1,96,72,1,m,2,2957,645,hit,4,female,18
EA_exp_1a,5,1,97,155,2,z,3,2282,714,cr,2,female,18
EA_exp_1a,5,1,98,101,2,z,2,3247,518,cr,3,female,18
EA_exp_1a,5,1,99,180,2,z,1,3379,1925,cr,3,female,18
EA_exp_1a,5,1,100,84,1,m,2,1817,763,hit,4,female,18
EA_exp_1a,5,1,101,138,2,z,1,1564,1737,cr,3,female,18
EA_exp_1a,5,1,102,75,1,z,2,3891,1362,miss,3,female,18
EA_exp_1a,5,1,103,44,1,z,2,3071,667,miss,3,female,18
EA_exp_1a,5,1,104,43,1,z,1,5330,823,miss,3,female,18
EA_exp_1a,5,1,105,129,2,m,2,3494,4979,fa,4,female,18
EA_exp_1a,5,1,106,77,1,m,3,1602,521,hit,5,female,18
EA_exp_1a,5,1,107,194,2,z,2,1720,409,cr,3,female,18
EA_exp_1a,5,1,108,136,2,z,3,3099,2776,cr,2,female,18
EA_exp_1a,5,1,109,34,1,z,2,3897,297,miss,3,female,18
EA_exp_1a,5,1,110,63,1,z,3,2396,455,miss,2,female,18
EA_exp_1a,5,1,111,74,1,z,3,1398,665,miss,2,female,18
EA_exp_1a,5,1,112,111,2,m,2,7505,1388,fa,4,female,18
EA_exp_1a,5,1,113,81,1,z,2,1894,420,miss,3,female,18
EA_exp_1a,5,1,114,168,2,z,2,4260,291,cr,3,female,18
EA_exp_1a,5,1,115,164,2,z,2,1530,261,cr,3,female,18
EA_exp_1a,5,1,116,171,2,z,3,3594,711,cr,2,female,18
EA_exp_1a,5,1,117,64,1,m,3,2586,1727,hit,5,female,18
EA_exp_1a,5,1,118,152,2,z,3,2056,3329,cr,2,female,18
EA_exp_1a,5,1,119,186,2,z,3,6056,1252,cr,2,female,18
EA_exp_1a,5,1,120,60,1,m,2,2162,534,hit,4,female,18
EA_exp_1a,5,1,121,85,1,z,2,2386,364,miss,3,female,18
EA_exp_1a,5,1,122,158,2,m,2,9036,1055,fa,4,female,18
EA_exp_1a,5,1,123,30,1,z,2,1749,265,miss,3,female,18
EA_exp_1a,5,1,124,176,2,z,3,3801,785,cr,2,female,18
EA_exp_1a,5,1,125,82,1,m,2,6210,1348,hit,4,female,18
EA_exp_1a,5,1,126,55,1,m,4,1452,335,hit,6,female,18
EA_exp_1a,5,1,127,51,1,m,2,3762,501,hit,4,female,18
EA_exp_1a,5,1,128,160,2,z,2,2482,393,cr,3,female,18
EA_exp_1a,5,1,129,37,1,z,1,6244,681,miss,3,female,18
EA_exp_1a,5,1,130,123,2,z,4,1936,1404,cr,1,female,18
EA_exp_1a,5,1,131,79,1,m,2,2168,1353,hit,4,female,18
EA_exp_1a,5,1,132,105,2,z,3,1271,523,cr,2,female,18
EA_exp_1a,5,1,133,91,1,m,3,1593,2337,hit,5,female,18
EA_exp_1a,5,1,134,102,2,z,2,4258,275,cr,3,female,18
EA_exp_1a,5,1,135,146,2,z,3,4089,349,cr,2,female,18
EA_exp_1a,5,1,136,20,1,z,3,2242,833,miss,2,female,18
EA_exp_1a,5,1,137,139,2,z,2,2081,2328,cr,3,female,18
EA_exp_1a,5,1,138,47,1,m,2,1862,957,hit,4,female,18
EA_exp_1a,5,1,139,154,2,z,2,7141,467,cr,3,female,18
EA_exp_1a,5,1,140,50,1,m,2,1728,469,hit,4,female,18
EA_exp_1a,5,1,141,183,2,m,2,1922,433,fa,4,female,18
EA_exp_1a,5,1,142,163,2,z,2,1507,317,cr,3,female,18
EA_exp_1a,5,1,143,189,2,z,3,2577,354,cr,2,female,18
EA_exp_1a,5,1,144,115,2,z,2,3382,298,cr,3,female,18
EA_exp_1a,5,1,145,172,2,z,3,1520,588,cr,2,female,18
EA_exp_1a,5,1,146,12,1,z,3,1429,500,miss,2,female,18
EA_exp_1a,5,1,147,32,1,z,2,3811,611,miss,3,female,18
EA_exp_1a,5,1,148,56,1,m,3,1453,428,hit,5,female,18
EA_exp_1a,5,1,149,191,2,z,2,3277,4177,cr,3,female,18
EA_exp_1a,5,1,150,124,2,z,2,1645,629,cr,3,female,18
EA_exp_1a,5,1,151,188,2,m,2,1853,525,fa,4,female,18
EA_exp_1a,5,1,152,107,2,m,2,4105,542,fa,4,female,18
EA_exp_1a,5,1,153,96,1,m,4,1690,656,hit,6,female,18
EA_exp_1a,5,1,154,73,1,z,3,1624,1232,miss,2,female,18
EA_exp_1a,5,1,155,22,1,m,2,4977,496,hit,4,female,18
EA_exp_1a,5,1,156,26,1,z,2,2127,193,miss,3,female,18
EA_exp_1a,5,1,157,9,1,z,2,2668,268,miss,3,female,18
EA_exp_1a,5,1,158,131,2,z,1,3714,455,cr,3,female,18
EA_exp_1a,5,1,159,119,2,z,1,3093,388,cr,3,female,18
EA_exp_1a,5,1,160,166,2,z,1,1539,354,cr,3,female,18
EA_exp_1a,5,1,161,190,2,z,1,1736,328,cr,3,female,18
EA_exp_1a,5,1,162,86,1,m,2,1705,368,hit,4,female,18
EA_exp_1a,5,1,163,58,1,z,2,3874,257,miss,3,female,18
EA_exp_1a,5,1,164,192,2,m,2,2598,650,fa,4,female,18
EA_exp_1a,5,1,165,122,2,z,1,1632,311,cr,3,female,18
EA_exp_1a,5,1,166,125,2,z,1,1245,279,cr,3,female,18
EA_exp_1a,5,1,167,90,1,m,2,1661,370,hit,4,female,18
EA_exp_1a,5,1,168,42,1,z,1,2997,1175,miss,3,female,18
EA_exp_1a,5,1,169,127,2,m,1,7223,703,fa,4,female,18
EA_exp_1a,5,1,170,118,2,z,3,1780,1288,cr,2,female,18
EA_exp_1a,5,1,171,19,1,m,2,2820,720,hit,4,female,18
EA_exp_1a,5,1,172,128,2,z,1,1431,212,cr,3,female,18
EA_exp_1a,5,1,173,193,2,z,1,2364,247,cr,3,female,18
EA_exp_1a,5,1,174,24,1,z,1,1006,206,miss,3,female,18
EA_exp_1a,5,1,175,94,1,m,2,3992,1443,hit,4,female,18
EA_exp_1a,5,1,176,28,1,m,2,5829,826,hit,4,female,18
EA_exp_1a,5,1,177,184,2,m,2,1210,564,fa,4,female,18
EA_exp_1a,5,1,178,110,2,z,3,1767,384,cr,2,female,18
EA_exp_1a,5,1,179,31,1,z,1,3779,613,miss,3,female,18
EA_exp_1a,5,1,180,5,1,m,2,1661,421,hit,4,female,18
EA_exp_1a,5,1,181,76,1,z,1,1507,466,miss,3,female,18
EA_exp_1a,5,1,182,23,1,z,2,1824,655,miss,3,female,18
EA_exp_1a,5,1,183,195,2,z,2,5050,1481,cr,3,female,18
EA_exp_1a,5,1,184,197,2,m,2,2798,567,fa,4,female,18
EA_exp_1a,5,1,185,70,1,m,2,2433,458,hit,4,female,18
EA_exp_1a,5,1,186,144,2,z,1,3022,409,cr,3,female,18
EA_exp_1a,5,1,187,87,1,m,2,2682,521,hit,4,female,18
EA_exp_1a,5,1,188,45,1,m,3,1525,354,hit,5,female,18
EA_exp_1a,5,1,189,117,2,z,1,1394,406,cr,3,female,18
EA_exp_1a,5,1,190,151,2,z,2,1851,295,cr,3,female,18
EA_exp_1a,5,1,191,54,1,z,2,4016,245,miss,3,female,18
EA_exp_1a,5,1,192,178,2,z,3,1487,331,cr,2,female,18
EA_exp_1a,5,1,193,4,1,m,2,2816,472,hit,4,female,18
EA_exp_1a,5,1,194,104,2,m,1,2953,443,fa,4,female,18
EA_exp_1a,5,1,195,95,1,m,2,2474,496,hit,4,female,18
EA_exp_1a,5,1,196,156,2,z,2,1810,366,cr,3,female,18
EA_exp_1a,5,1,197,134,2,m,2,1888,366,fa,4,female,18
EA_exp_1a,5,1,198,109,2,z,3,1105,254,cr,2,female,18
EA_exp_1a,5,1,199,100,1,m,1,2246,821,hit,4,female,18
EA_exp_1a,5,1,200,185,2,z,2,2422,222,cr,3,female,18
EA_exp_1a,6,1,1,99,1,m,4,2875,1964,hit,6,female,20
EA_exp_1a,6,1,2,111,2,z,2,4904,1332,cr,3,female,20
EA_exp_1a,6,1,3,83,1,m,4,1581,1371,hit,6,female,20
EA_exp_1a,6,1,4,129,2,m,3,2532,1561,fa,5,female,20
EA_exp_1a,6,1,5,58,1,m,4,1309,1297,hit,6,female,20
EA_exp_1a,6,1,6,74,1,m,4,1343,963,hit,6,female,20
EA_exp_1a,6,1,7,122,2,z,3,2111,1251,cr,2,female,20
EA_exp_1a,6,1,8,197,2,z,3,2082,1480,cr,2,female,20
EA_exp_1a,6,1,9,18,1,m,4,1181,921,hit,6,female,20
EA_exp_1a,6,1,10,84,1,m,4,1044,403,hit,6,female,20
EA_exp_1a,6,1,11,149,2,z,3,1813,695,cr,2,female,20
EA_exp_1a,6,1,12,87,1,m,4,861,771,hit,6,female,20
EA_exp_1a,6,1,13,68,1,m,4,968,425,hit,6,female,20
EA_exp_1a,6,1,14,133,2,z,3,1113,502,cr,2,female,20
EA_exp_1a,6,1,15,34,1,m,4,901,361,hit,6,female,20
EA_exp_1a,6,1,16,89,1,z,3,1317,608,miss,2,female,20
EA_exp_1a,6,1,17,17,1,z,2,1543,805,miss,3,female,20
EA_exp_1a,6,1,18,24,1,z,3,1298,540,miss,2,female,20
EA_exp_1a,6,1,19,54,1,m,4,1321,460,hit,6,female,20
EA_exp_1a,6,1,20,90,1,m,3,2189,333,hit,5,female,20
EA_exp_1a,6,1,21,118,2,z,3,1151,509,cr,2,female,20
EA_exp_1a,6,1,22,191,2,z,2,2907,575,cr,3,female,20
EA_exp_1a,6,1,23,59,1,m,4,924,591,hit,6,female,20
EA_exp_1a,6,1,24,50,1,m,4,776,451,hit,6,female,20
EA_exp_1a,6,1,25,184,2,z,2,1424,450,cr,3,female,20
EA_exp_1a,6,1,26,76,1,m,4,800,603,hit,6,female,20
EA_exp_1a,6,1,27,157,2,z,4,1107,512,cr,1,female,20
EA_exp_1a,6,1,28,166,2,z,3,1230,423,cr,2,female,20
EA_exp_1a,6,1,29,28,1,m,4,1415,423,hit,6,female,20
EA_exp_1a,6,1,30,153,2,m,3,1159,611,fa,5,female,20
EA_exp_1a,6,1,31,80,1,z,3,1787,798,miss,2,female,20
EA_exp_1a,6,1,32,32,1,m,3,1567,427,hit,5,female,20
EA_exp_1a,6,1,33,85,1,z,2,1126,439,miss,3,female,20
EA_exp_1a,6,1,34,3,1,m,3,1241,303,hit,5,female,20
EA_exp_1a,6,1,35,82,1,z,3,1527,417,miss,2,female,20
EA_exp_1a,6,1,36,167,2,z,3,688,463,cr,2,female,20
EA_exp_1a,6,1,37,60,1,z,3,1358,481,miss,2,female,20
EA_exp_1a,6,1,38,170,2,z,3,1120,461,cr,2,female,20
EA_exp_1a,6,1,39,93,1,m,4,893,273,hit,6,female,20
EA_exp_1a,6,1,40,41,1,m,4,1193,273,hit,6,female,20
EA_exp_1a,6,1,41,22,1,m,3,1161,258,hit,5,female,20
EA_exp_1a,6,1,42,31,1,z,2,1099,358,miss,3,female,20
EA_exp_1a,6,1,43,114,2,m,3,804,226,fa,5,female,20
EA_exp_1a,6,1,44,96,1,z,2,1338,335,miss,3,female,20
EA_exp_1a,6,1,45,30,1,m,4,1058,578,hit,6,female,20
EA_exp_1a,6,1,46,154,2,z,3,1082,458,cr,2,female,20
EA_exp_1a,6,1,47,139,2,z,3,874,432,cr,2,female,20
EA_exp_1a,6,1,48,177,2,z,3,1854,432,cr,2,female,20
EA_exp_1a,6,1,49,105,2,z,4,846,551,cr,1,female,20
EA_exp_1a,6,1,50,98,1,m,4,860,345,hit,6,female,20
EA_exp_1a,6,1,51,88,1,m,4,1036,302,hit,6,female,20
EA_exp_1a,6,1,52,46,1,m,4,929,279,hit,6,female,20
EA_exp_1a,6,1,53,9,1,z,2,1164,808,miss,3,female,20
EA_exp_1a,6,1,54,134,2,z,3,871,543,cr,2,female,20
EA_exp_1a,6,1,55,176,2,m,3,2108,239,fa,5,female,20
EA_exp_1a,6,1,56,150,2,z,3,903,429,cr,2,female,20
EA_exp_1a,6,1,57,152,2,z,2,1262,325,cr,3,female,20
EA_exp_1a,6,1,58,91,1,z,4,889,639,miss,1,female,20
EA_exp_1a,6,1,59,23,1,m,4,809,272,hit,6,female,20
EA_exp_1a,6,1,60,110,2,z,2,1030,454,cr,3,female,20
EA_exp_1a,6,1,61,161,2,z,4,888,429,cr,1,female,20
EA_exp_1a,6,1,62,121,2,z,4,941,432,cr,1,female,20
EA_exp_1a,6,1,63,183,2,z,2,1281,599,cr,3,female,20
EA_exp_1a,6,1,64,15,1,z,3,927,453,miss,2,female,20
EA_exp_1a,6,1,65,140,2,z,2,756,431,cr,3,female,20
EA_exp_1a,6,1,66,192,2,z,3,2982,657,cr,2,female,20
EA_exp_1a,6,1,67,120,2,z,3,855,416,cr,2,female,20
EA_exp_1a,6,1,68,72,1,m,4,755,444,hit,6,female,20
EA_exp_1a,6,1,69,125,2,m,3,715,361,fa,5,female,20
EA_exp_1a,6,1,70,43,1,z,2,2268,234,miss,3,female,20
EA_exp_1a,6,1,71,115,2,z,2,1425,867,cr,3,female,20
EA_exp_1a,6,1,72,7,1,z,2,928,389,miss,3,female,20
EA_exp_1a,6,1,73,145,2,z,4,967,681,cr,1,female,20
EA_exp_1a,6,1,74,116,2,z,3,851,505,cr,2,female,20
EA_exp_1a,6,1,75,101,2,z,3,1109,322,cr,2,female,20
EA_exp_1a,6,1,76,135,2,z,3,789,431,cr,2,female,20
EA_exp_1a,6,1,77,11,1,z,2,671,511,miss,3,female,20
EA_exp_1a,6,1,78,174,2,z,3,733,489,cr,2,female,20
EA_exp_1a,6,1,79,97,1,z,4,917,443,miss,1,female,20
EA_exp_1a,6,1,80,94,1,m,3,1357,415,hit,5,female,20
EA_exp_1a,6,1,81,103,2,z,2,928,436,cr,3,female,20
EA_exp_1a,6,1,82,95,1,m,4,1246,364,hit,6,female,20
EA_exp_1a,6,1,83,189,2,z,4,1037,462,cr,1,female,20
EA_exp_1a,6,1,84,81,1,m,3,2032,807,hit,5,female,20
EA_exp_1a,6,1,85,12,1,m,4,969,347,hit,6,female,20
EA_exp_1a,6,1,86,163,2,z,2,2016,455,cr,3,female,20
EA_exp_1a,6,1,87,44,1,m,4,1463,244,hit,6,female,20
EA_exp_1a,6,1,88,175,2,m,3,1567,311,fa,5,female,20
EA_exp_1a,6,1,89,13,1,m,4,893,226,hit,6,female,20
EA_exp_1a,6,1,90,64,1,m,4,697,200,hit,6,female,20
EA_exp_1a,6,1,91,143,2,z,4,2050,377,cr,1,female,20
EA_exp_1a,6,1,92,132,2,z,4,1182,293,cr,1,female,20
EA_exp_1a,6,1,93,48,1,m,4,2011,243,hit,6,female,20
EA_exp_1a,6,1,94,131,2,z,3,1163,327,cr,2,female,20
EA_exp_1a,6,1,95,136,2,z,2,717,1033,cr,3,female,20
EA_exp_1a,6,1,96,33,1,z,2,1508,398,miss,3,female,20
EA_exp_1a,6,1,97,79,1,m,4,1248,359,hit,6,female,20
EA_exp_1a,6,1,98,1,1,m,3,1556,293,hit,5,female,20
EA_exp_1a,6,1,99,69,1,m,4,1086,329,hit,6,female,20
EA_exp_1a,6,1,100,37,1,m,3,1184,328,hit,5,female,20
EA_exp_1a,6,1,101,165,2,z,3,1565,456,cr,2,female,20
EA_exp_1a,6,1,102,156,2,z,4,1366,666,cr,1,female,20
EA_exp_1a,6,1,103,147,2,z,4,865,407,cr,1,female,20
EA_exp_1a,6,1,104,102,2,m,3,1240,303,fa,5,female,20
EA_exp_1a,6,1,105,141,2,z,4,1190,623,cr,1,female,20
EA_exp_1a,6,1,106,109,2,z,4,1046,328,cr,1,female,20
EA_exp_1a,6,1,107,19,1,z,3,1116,536,miss,2,female,20
EA_exp_1a,6,1,108,148,2,z,3,1575,430,cr,2,female,20
EA_exp_1a,6,1,109,108,2,z,2,865,438,cr,3,female,20
EA_exp_1a,6,1,110,178,2,z,2,743,385,cr,3,female,20
EA_exp_1a,6,1,111,8,1,z,2,836,811,miss,3,female,20
EA_exp_1a,6,1,112,92,1,m,3,766,264,hit,5,female,20
EA_exp_1a,6,1,113,21,1,m,4,1641,245,hit,6,female,20
EA_exp_1a,6,1,114,4,1,m,3,965,257,hit,5,female,20
EA_exp_1a,6,1,115,188,2,z,2,1737,603,cr,3,female,20
EA_exp_1a,6,1,116,113,2,z,2,1090,258,cr,3,female,20
EA_exp_1a,6,1,117,57,1,m,3,889,415,hit,5,female,20
EA_exp_1a,6,1,118,124,2,m,2,864,3351,fa,4,female,20
EA_exp_1a,6,1,119,106,2,z,2,1376,325,cr,3,female,20
EA_exp_1a,6,1,120,173,2,z,3,1688,335,cr,2,female,20
EA_exp_1a,6,1,121,159,2,z,3,1058,386,cr,2,female,20
EA_exp_1a,6,1,122,138,2,z,3,787,237,cr,2,female,20
EA_exp_1a,6,1,123,168,2,z,3,916,1050,cr,2,female,20
EA_exp_1a,6,1,124,104,2,z,3,786,381,cr,2,female,20
EA_exp_1a,6,1,125,10,1,z,3,907,307,miss,2,female,20
EA_exp_1a,6,1,126,66,1,m,4,1125,308,hit,6,female,20
EA_exp_1a,6,1,127,45,1,m,4,780,276,hit,6,female,20
EA_exp_1a,6,1,128,164,2,m,3,921,991,fa,5,female,20
EA_exp_1a,6,1,129,119,2,z,3,1691,383,cr,2,female,20
EA_exp_1a,6,1,130,71,1,m,4,857,456,hit,6,female,20
EA_exp_1a,6,1,131,29,1,m,4,885,445,hit,6,female,20
EA_exp_1a,6,1,132,142,2,z,4,1388,367,cr,1,female,20
EA_exp_1a,6,1,133,171,2,z,3,1778,291,cr,2,female,20
EA_exp_1a,6,1,134,162,2,z,3,857,240,cr,2,female,20
EA_exp_1a,6,1,135,181,2,m,4,1098,662,fa,6,female,20
EA_exp_1a,6,1,136,78,1,m,4,877,307,hit,6,female,20
EA_exp_1a,6,1,137,61,1,m,4,985,268,hit,6,female,20
EA_exp_1a,6,1,138,70,1,m,4,768,300,hit,6,female,20
EA_exp_1a,6,1,139,158,2,z,4,1231,297,cr,1,female,20
EA_exp_1a,6,1,140,151,2,z,4,1200,377,cr,1,female,20
EA_exp_1a,6,1,141,144,2,m,4,2266,394,fa,6,female,20
EA_exp_1a,6,1,142,127,2,z,2,1099,377,cr,3,female,20
EA_exp_1a,6,1,143,35,1,z,3,1018,524,miss,2,female,20
EA_exp_1a,6,1,144,53,1,z,4,2681,518,miss,1,female,20
EA_exp_1a,6,1,145,62,1,z,4,1138,447,miss,1,female,20
EA_exp_1a,6,1,146,180,2,z,4,1040,511,cr,1,female,20
EA_exp_1a,6,1,147,160,2,z,4,985,462,cr,1,female,20
EA_exp_1a,6,1,148,36,1,z,2,1036,2253,miss,3,female,20
EA_exp_1a,6,1,149,187,2,m,2,2102,330,fa,4,female,20
EA_exp_1a,6,1,150,47,1,m,4,1565,266,hit,6,female,20
EA_exp_1a,6,1,151,130,2,z,2,1311,293,cr,3,female,20
EA_exp_1a,6,1,152,112,2,z,3,1228,468,cr,2,female,20
EA_exp_1a,6,1,153,195,2,z,4,1348,405,cr,1,female,20
EA_exp_1a,6,1,154,67,1,z,2,1138,338,miss,3,female,20
EA_exp_1a,6,1,155,14,1,m,4,1302,299,hit,6,female,20
EA_exp_1a,6,1,156,49,1,m,4,1827,321,hit,6,female,20
EA_exp_1a,6,1,157,185,2,z,4,1076,851,cr,1,female,20
EA_exp_1a,6,1,158,6,1,z,2,1459,417,miss,3,female,20
EA_exp_1a,6,1,159,52,1,m,4,1476,304,hit,6,female,20
EA_exp_1a,6,1,160,137,2,z,2,1603,303,cr,3,female,20
EA_exp_1a,6,1,161,56,1,z,3,996,901,miss,2,female,20
EA_exp_1a,6,1,162,63,1,m,4,1218,331,hit,6,female,20
EA_exp_1a,6,1,163,117,2,m,3,847,343,fa,5,female,20
EA_exp_1a,6,1,164,199,2,z,3,2889,496,cr,2,female,20
EA_exp_1a,6,1,165,190,2,z,4,1294,516,cr,1,female,20
EA_exp_1a,6,1,166,193,2,z,4,1169,540,cr,1,female,20
EA_exp_1a,6,1,167,20,1,m,4,936,347,hit,6,female,20
EA_exp_1a,6,1,168,25,1,m,4,802,409,hit,6,female,20
EA_exp_1a,6,1,169,77,1,m,4,860,321,hit,6,female,20
EA_exp_1a,6,1,170,107,2,m,3,1300,283,fa,5,female,20
EA_exp_1a,6,1,171,169,2,z,4,1279,390,cr,1,female,20
EA_exp_1a,6,1,172,186,2,m,3,1545,261,fa,5,female,20
EA_exp_1a,6,1,173,55,1,m,4,779,438,hit,6,female,20
EA_exp_1a,6,1,174,42,1,z,4,1576,448,miss,1,female,20
EA_exp_1a,6,1,175,172,2,z,4,846,376,cr,1,female,20
EA_exp_1a,6,1,176,179,2,z,4,795,531,cr,1,female,20
EA_exp_1a,6,1,177,2,1,z,4,1071,415,miss,1,female,20
EA_exp_1a,6,1,178,146,2,z,4,1007,417,cr,1,female,20
EA_exp_1a,6,1,179,38,1,z,3,1269,391,miss,2,female,20
EA_exp_1a,6,1,180,182,2,z,4,1752,413,cr,1,female,20
EA_exp_1a,6,1,181,65,1,m,4,1039,254,hit,6,female,20
EA_exp_1a,6,1,182,86,1,z,3,1829,422,miss,2,female,20
EA_exp_1a,6,1,183,75,1,m,4,1664,477,hit,6,female,20
EA_exp_1a,6,1,184,16,1,m,3,974,782,hit,5,female,20
EA_exp_1a,6,1,185,5,1,m,4,1153,365,hit,6,female,20
EA_exp_1a,6,1,186,126,2,m,2,849,583,fa,4,female,20
EA_exp_1a,6,1,187,194,2,z,3,1393,851,cr,2,female,20
EA_exp_1a,6,1,188,51,1,z,4,1204,604,miss,1,female,20
EA_exp_1a,6,1,189,100,1,z,4,1814,998,miss,1,female,20
EA_exp_1a,6,1,190,39,1,m,4,1154,635,hit,6,female,20
EA_exp_1a,6,1,191,128,2,z,2,1503,367,cr,3,female,20
EA_exp_1a,6,1,192,73,1,z,3,1188,892,miss,2,female,20
EA_exp_1a,6,1,193,198,2,z,3,1463,1049,cr,2,female,20
EA_exp_1a,6,1,194,196,2,z,3,994,498,cr,2,female,20
EA_exp_1a,6,1,195,200,2,z,4,712,797,cr,1,female,20
EA_exp_1a,6,1,196,155,2,z,4,926,739,cr,1,female,20
EA_exp_1a,6,1,197,27,1,m,4,979,697,hit,6,female,20
EA_exp_1a,6,1,198,26,1,m,4,895,388,hit,6,female,20
EA_exp_1a,6,1,199,123,2,m,2,744,1873,fa,4,female,20
EA_exp_1a,6,1,200,40,1,z,2,2678,694,miss,3,female,20
EA_exp_1a,7,1,1,91,1,m,4,2388,5769,hit,6,female,19
EA_exp_1a,7,1,2,48,1,m,2,4530,1864,hit,4,female,19
EA_exp_1a,7,1,3,195,2,z,2,2780,3962,cr,3,female,19
EA_exp_1a,7,1,4,162,2,z,1,3822,1133,cr,3,female,19
EA_exp_1a,7,1,5,101,2,m,2,3521,3150,fa,4,female,19
EA_exp_1a,7,1,6,36,1,m,3,2657,1808,hit,5,female,19
EA_exp_1a,7,1,7,189,2,z,1,1911,3414,cr,3,female,19
EA_exp_1a,7,1,8,84,1,m,4,1803,3168,hit,6,female,19
EA_exp_1a,7,1,9,179,2,z,1,2130,839,cr,3,female,19
EA_exp_1a,7,1,10,147,2,z,1,2416,544,cr,3,female,19
EA_exp_1a,7,1,11,23,1,m,2,1758,1471,hit,4,female,19
EA_exp_1a,7,1,12,74,1,m,2,2293,467,hit,4,female,19
EA_exp_1a,7,1,13,110,2,z,2,2096,1191,cr,3,female,19
EA_exp_1a,7,1,14,85,1,m,4,1849,568,hit,6,female,19
EA_exp_1a,7,1,15,152,2,m,3,2290,688,fa,5,female,19
EA_exp_1a,7,1,16,196,2,z,2,1319,1483,cr,3,female,19
EA_exp_1a,7,1,17,167,2,z,2,1329,533,cr,3,female,19
EA_exp_1a,7,1,18,56,1,z,1,1474,1840,miss,3,female,19
EA_exp_1a,7,1,19,127,2,z,2,3047,2007,cr,3,female,19
EA_exp_1a,7,1,20,158,2,z,1,2132,780,cr,3,female,19
EA_exp_1a,7,1,21,174,2,m,2,1420,1552,fa,4,female,19
EA_exp_1a,7,1,22,100,1,m,4,2722,784,hit,6,female,19
EA_exp_1a,7,1,23,16,1,m,3,1233,665,hit,5,female,19
EA_exp_1a,7,1,24,185,2,z,1,1442,1360,cr,3,female,19
EA_exp_1a,7,1,25,15,1,m,2,1771,431,hit,4,female,19
EA_exp_1a,7,1,26,22,1,m,2,1276,469,hit,4,female,19
EA_exp_1a,7,1,27,45,1,z,2,1220,796,miss,3,female,19
EA_exp_1a,7,1,28,118,2,z,3,2814,1495,cr,2,female,19
EA_exp_1a,7,1,29,66,1,m,4,2174,1103,hit,6,female,19
EA_exp_1a,7,1,30,67,1,z,2,1299,794,miss,3,female,19
EA_exp_1a,7,1,31,34,1,m,2,1655,402,hit,4,female,19
EA_exp_1a,7,1,32,144,2,z,2,1620,492,cr,3,female,19
EA_exp_1a,7,1,33,113,2,z,2,1772,445,cr,3,female,19
EA_exp_1a,7,1,34,65,1,z,1,1039,1325,miss,3,female,19
EA_exp_1a,7,1,35,119,2,z,2,2521,398,cr,3,female,19
EA_exp_1a,7,1,36,191,2,z,2,1519,1678,cr,3,female,19
EA_exp_1a,7,1,37,102,2,m,2,1596,388,fa,4,female,19
EA_exp_1a,7,1,38,9,1,z,2,1685,620,miss,3,female,19
EA_exp_1a,7,1,39,75,1,m,2,3651,380,hit,4,female,19
EA_exp_1a,7,1,40,41,1,z,2,784,905,miss,3,female,19
EA_exp_1a,7,1,41,90,1,m,2,1735,359,hit,4,female,19
EA_exp_1a,7,1,42,150,2,z,2,863,324,cr,3,female,19
EA_exp_1a,7,1,43,55,1,z,2,1721,301,miss,3,female,19
EA_exp_1a,7,1,44,193,2,z,1,4982,630,cr,3,female,19
EA_exp_1a,7,1,45,14,1,m,4,1840,462,hit,6,female,19
EA_exp_1a,7,1,46,2,1,m,3,1261,388,hit,5,female,19
EA_exp_1a,7,1,47,49,1,m,4,1222,432,hit,6,female,19
EA_exp_1a,7,1,48,27,1,z,2,2474,1285,miss,3,female,19
EA_exp_1a,7,1,49,148,2,z,3,1460,2402,cr,2,female,19
EA_exp_1a,7,1,50,1,1,z,1,1621,1549,miss,3,female,19
EA_exp_1a,7,1,51,145,2,z,1,895,454,cr,3,female,19
EA_exp_1a,7,1,52,103,2,z,2,1368,471,cr,3,female,19
EA_exp_1a,7,1,53,7,1,z,2,1799,423,miss,3,female,19
EA_exp_1a,7,1,54,18,1,m,4,1878,422,hit,6,female,19
EA_exp_1a,7,1,55,135,2,z,3,1252,846,cr,2,female,19
EA_exp_1a,7,1,56,181,2,z,1,1711,883,cr,3,female,19
EA_exp_1a,7,1,57,197,2,z,3,1682,2086,cr,2,female,19
EA_exp_1a,7,1,58,30,1,m,2,2453,333,hit,4,female,19
EA_exp_1a,7,1,59,177,2,z,2,1167,443,cr,3,female,19
EA_exp_1a,7,1,60,142,2,z,2,891,305,cr,3,female,19
EA_exp_1a,7,1,61,137,2,z,2,871,220,cr,3,female,19
EA_exp_1a,7,1,62,35,1,m,2,1845,213,hit,4,female,19
EA_exp_1a,7,1,63,153,2,m,2,2382,249,fa,4,female,19
EA_exp_1a,7,1,64,187,2,z,2,792,281,cr,3,female,19
EA_exp_1a,7,1,65,64,1,z,1,2095,1557,miss,3,female,19
EA_exp_1a,7,1,66,54,1,m,3,2843,688,hit,5,female,19
EA_exp_1a,7,1,67,62,1,z,2,1493,483,miss,3,female,19
EA_exp_1a,7,1,68,139,2,z,2,1055,417,cr,3,female,19
EA_exp_1a,7,1,69,146,2,z,2,991,338,cr,3,female,19
EA_exp_1a,7,1,70,138,2,z,2,1302,539,cr,3,female,19
EA_exp_1a,7,1,71,20,1,m,4,1944,306,hit,6,female,19
EA_exp_1a,7,1,72,166,2,z,2,1511,372,cr,3,female,19
EA_exp_1a,7,1,73,43,1,m,1,4693,1572,hit,4,female,19
EA_exp_1a,7,1,74,175,2,m,2,1433,375,fa,4,female,19
EA_exp_1a,7,1,75,188,2,z,2,1593,355,cr,3,female,19
EA_exp_1a,7,1,76,116,2,z,3,1061,740,cr,2,female,19
EA_exp_1a,7,1,77,31,1,m,2,1928,310,hit,4,female,19
EA_exp_1a,7,1,78,24,1,z,2,1194,324,miss,3,female,19
EA_exp_1a,7,1,79,180,2,z,2,856,350,cr,3,female,19
EA_exp_1a,7,1,80,159,2,m,2,1420,466,fa,4,female,19
EA_exp_1a,7,1,81,107,2,m,2,1888,447,fa,4,female,19
EA_exp_1a,7,1,82,79,1,m,4,4555,513,hit,6,female,19
EA_exp_1a,7,1,83,157,2,z,3,2413,582,cr,2,female,19
EA_exp_1a,7,1,84,194,2,m,2,1873,511,fa,4,female,19
EA_exp_1a,7,1,85,57,1,z,2,1231,404,miss,3,female,19
EA_exp_1a,7,1,86,72,1,z,2,1112,1315,miss,3,female,19
EA_exp_1a,7,1,87,98,1,z,2,2511,1301,miss,3,female,19
EA_exp_1a,7,1,88,93,1,m,4,1395,323,hit,6,female,19
EA_exp_1a,7,1,89,39,1,m,3,1385,1067,hit,5,female,19
EA_exp_1a,7,1,90,182,2,z,2,1633,905,cr,3,female,19
EA_exp_1a,7,1,91,108,2,z,2,3652,365,cr,3,female,19
EA_exp_1a,7,1,92,120,2,z,3,1040,1136,cr,2,female,19
EA_exp_1a,7,1,93,111,2,z,2,2770,591,cr,3,female,19
EA_exp_1a,7,1,94,28,1,m,2,1723,445,hit,4,female,19
EA_exp_1a,7,1,95,60,1,z,3,2621,430,miss,2,female,19
EA_exp_1a,7,1,96,121,2,m,2,2694,348,fa,4,female,19
EA_exp_1a,7,1,97,4,1,z,3,1103,733,miss,2,female,19
EA_exp_1a,7,1,98,73,1,m,4,2817,314,hit,6,female,19
EA_exp_1a,7,1,99,32,1,m,2,1682,549,hit,4,female,19
EA_exp_1a,7,1,100,5,1,z,2,1233,410,miss,3,female,19
EA_exp_1a,7,1,101,63,1,z,2,937,351,miss,3,female,19
EA_exp_1a,7,1,102,105,2,z,4,1530,1422,cr,1,female,19
EA_exp_1a,7,1,103,61,1,m,4,2615,439,hit,6,female,19
EA_exp_1a,7,1,104,86,1,m,2,1288,429,hit,4,female,19
EA_exp_1a,7,1,105,8,1,m,4,1487,300,hit,6,female,19
EA_exp_1a,7,1,106,117,2,m,2,2705,1199,fa,4,female,19
EA_exp_1a,7,1,107,47,1,z,2,1250,328,miss,3,female,19
EA_exp_1a,7,1,108,184,2,z,2,1005,382,cr,3,female,19
EA_exp_1a,7,1,109,29,1,z,2,2290,511,miss,3,female,19
EA_exp_1a,7,1,110,76,1,z,2,2844,947,miss,3,female,19
EA_exp_1a,7,1,111,200,2,z,2,1330,948,cr,3,female,19
EA_exp_1a,7,1,112,96,1,z,2,1060,446,miss,3,female,19
EA_exp_1a,7,1,113,125,2,m,3,2029,1798,fa,5,female,19
EA_exp_1a,7,1,114,19,1,z,3,1133,812,miss,2,female,19
EA_exp_1a,7,1,115,128,2,m,1,2444,517,fa,4,female,19
EA_exp_1a,7,1,116,44,1,z,2,1713,1158,miss,3,female,19
EA_exp_1a,7,1,117,6,1,m,1,3401,331,hit,4,female,19
EA_exp_1a,7,1,118,161,2,m,1,2064,358,fa,4,female,19
EA_exp_1a,7,1,119,51,1,z,2,904,1007,miss,3,female,19
EA_exp_1a,7,1,120,136,2,z,2,3015,361,cr,3,female,19
EA_exp_1a,7,1,121,165,2,z,2,1450,908,cr,3,female,19
EA_exp_1a,7,1,122,168,2,z,2,1286,543,cr,3,female,19
EA_exp_1a,7,1,123,169,2,z,4,1801,973,cr,1,female,19
EA_exp_1a,7,1,124,80,1,z,2,1462,470,miss,3,female,19
EA_exp_1a,7,1,125,192,2,z,2,1088,482,cr,3,female,19
EA_exp_1a,7,1,126,199,2,m,2,1231,328,fa,4,female,19
EA_exp_1a,7,1,127,186,2,z,2,988,319,cr,3,female,19
EA_exp_1a,7,1,128,46,1,m,4,1206,365,hit,6,female,19
EA_exp_1a,7,1,129,42,1,z,1,3027,3840,miss,3,female,19
EA_exp_1a,7,1,130,53,1,z,2,2969,362,miss,3,female,19
EA_exp_1a,7,1,131,99,1,m,2,1261,371,hit,4,female,19
EA_exp_1a,7,1,132,89,1,m,2,1733,411,hit,4,female,19
EA_exp_1a,7,1,133,71,1,m,2,1579,230,hit,4,female,19
EA_exp_1a,7,1,134,112,2,z,2,846,326,cr,3,female,19
EA_exp_1a,7,1,135,13,1,m,1,2458,769,hit,4,female,19
EA_exp_1a,7,1,136,149,2,z,2,926,552,cr,3,female,19
EA_exp_1a,7,1,137,17,1,m,4,2613,868,hit,6,female,19
EA_exp_1a,7,1,138,154,2,z,2,865,522,cr,3,female,19
EA_exp_1a,7,1,139,95,1,z,3,870,1693,miss,2,female,19
EA_exp_1a,7,1,140,12,1,z,2,1754,1695,miss,3,female,19
EA_exp_1a,7,1,141,176,2,z,3,1467,523,cr,2,female,19
EA_exp_1a,7,1,142,156,2,z,2,1064,870,cr,3,female,19
EA_exp_1a,7,1,143,115,2,z,2,1766,712,cr,3,female,19
EA_exp_1a,7,1,144,104,2,z,2,892,307,cr,3,female,19
EA_exp_1a,7,1,145,140,2,z,2,1046,247,cr,3,female,19
EA_exp_1a,7,1,146,198,2,m,2,3974,873,fa,4,female,19
EA_exp_1a,7,1,147,58,1,m,2,3818,473,hit,4,female,19
EA_exp_1a,7,1,148,94,1,z,2,790,305,miss,3,female,19
EA_exp_1a,7,1,149,124,2,z,2,3461,533,cr,3,female,19
EA_exp_1a,7,1,150,141,2,z,2,2194,339,cr,3,female,19
EA_exp_1a,7,1,151,130,2,z,3,1958,960,cr,2,female,19
EA_exp_1a,7,1,152,25,1,z,1,1323,816,miss,3,female,19
EA_exp_1a,7,1,153,109,2,z,2,833,2010,cr,3,female,19
EA_exp_1a,7,1,154,26,1,z,2,1080,329,miss,3,female,19
EA_exp_1a,7,1,155,70,1,m,2,2044,437,hit,4,female,19
EA_exp_1a,7,1,156,37,1,m,3,1541,864,hit,5,female,19
EA_exp_1a,7,1,157,151,2,z,3,911,997,cr,2,female,19
EA_exp_1a,7,1,158,170,2,z,2,1008,448,cr,3,female,19
EA_exp_1a,7,1,159,143,2,z,2,2365,395,cr,3,female,19
EA_exp_1a,7,1,160,50,1,m,4,2988,511,hit,6,female,19
EA_exp_1a,7,1,161,11,1,m,2,2206,317,hit,4,female,19
EA_exp_1a,7,1,162,69,1,m,2,2089,343,hit,4,female,19
EA_exp_1a,7,1,163,123,2,z,3,729,872,cr,2,female,19
EA_exp_1a,7,1,164,160,2,z,3,1462,2501,cr,2,female,19
EA_exp_1a,7,1,165,87,1,m,3,2850,1417,hit,5,female,19
EA_exp_1a,7,1,166,129,2,z,2,879,775,cr,3,female,19
EA_exp_1a,7,1,167,131,2,z,2,1485,297,cr,3,female,19
EA_exp_1a,7,1,168,10,1,m,2,2289,284,hit,4,female,19
EA_exp_1a,7,1,169,133,2,z,2,1203,348,cr,3,female,19
EA_exp_1a,7,1,170,126,2,z,3,1026,544,cr,2,female,19
EA_exp_1a,7,1,171,68,1,z,2,989,686,miss,3,female,19
EA_exp_1a,7,1,172,163,2,z,2,1190,350,cr,3,female,19
EA_exp_1a,7,1,173,40,1,m,4,1682,807,hit,6,female,19
EA_exp_1a,7,1,174,38,1,z,2,1287,446,miss,3,female,19
EA_exp_1a,7,1,175,106,2,z,2,720,346,cr,3,female,19
EA_exp_1a,7,1,176,88,1,m,4,1229,551,hit,6,female,19
EA_exp_1a,7,1,177,183,2,z,2,853,393,cr,3,female,19
EA_exp_1a,7,1,178,178,2,z,2,1229,355,cr,3,female,19
EA_exp_1a,7,1,179,114,2,z,2,1380,265,cr,3,female,19
EA_exp_1a,7,1,180,59,1,z,2,878,438,miss,3,female,19
EA_exp_1a,7,1,181,172,2,m,2,2147,266,fa,4,female,19
EA_exp_1a,7,1,182,122,2,z,2,772,283,cr,3,female,19
EA_exp_1a,7,1,183,3,1,m,2,1706,837,hit,4,female,19
EA_exp_1a,7,1,184,21,1,m,1,1288,444,hit,4,female,19
EA_exp_1a,7,1,185,97,1,m,4,2203,654,hit,6,female,19
EA_exp_1a,7,1,186,52,1,m,2,2599,550,hit,4,female,19
EA_exp_1a,7,1,187,33,1,z,2,943,501,miss,3,female,19
EA_exp_1a,7,1,188,81,1,z,2,1012,371,miss,3,female,19
EA_exp_1a,7,1,189,190,2,m,2,2024,271,fa,4,female,19
EA_exp_1a,7,1,190,171,2,z,2,769,479,cr,3,female,19
EA_exp_1a,7,1,191,173,2,z,2,735,331,cr,3,female,19
EA_exp_1a,7,1,192,164,2,z,2,958,257,cr,3,female,19
EA_exp_1a,7,1,193,77,1,m,2,2427,288,hit,4,female,19
EA_exp_1a,7,1,194,82,1,z,1,1174,833,miss,3,female,19
EA_exp_1a,7,1,195,78,1,m,4,2514,1125,hit,6,female,19
EA_exp_1a,7,1,196,83,1,m,4,2157,589,hit,6,female,19
EA_exp_1a,7,1,197,155,2,z,1,1928,1107,cr,3,female,19
EA_exp_1a,7,1,198,134,2,z,1,888,1343,cr,3,female,19
EA_exp_1a,7,1,199,92,1,m,4,1538,422,hit,6,female,19
EA_exp_1a,7,1,200,132,2,m,2,2087,412,fa,4,female,19
EA_exp_1a,8,1,1,197,2,m,3,4201,1968,fa,5,female,20
EA_exp_1a,8,1,2,156,2,z,1,10689,1184,cr,3,female,20
EA_exp_1a,8,1,3,35,1,m,4,1697,1352,hit,6,female,20
EA_exp_1a,8,1,4,181,2,m,2,1804,1940,fa,4,female,20
EA_exp_1a,8,1,5,12,1,z,2,1737,1965,miss,3,female,20
EA_exp_1a,8,1,6,148,2,m,4,1869,3453,fa,6,female,20
EA_exp_1a,8,1,7,29,1,z,2,1989,1375,miss,3,female,20
EA_exp_1a,8,1,8,95,1,m,4,1462,1352,hit,6,female,20
EA_exp_1a,8,1,9,99,1,m,4,1458,1106,hit,6,female,20
EA_exp_1a,8,1,10,191,2,z,1,1975,770,cr,3,female,20
EA_exp_1a,8,1,11,180,2,z,1,1458,547,cr,3,female,20
EA_exp_1a,8,1,12,145,2,m,3,1838,672,fa,5,female,20
EA_exp_1a,8,1,13,139,2,z,1,1829,1318,cr,3,female,20
EA_exp_1a,8,1,14,96,1,m,2,2115,663,hit,4,female,20
EA_exp_1a,8,1,15,155,2,z,3,2989,2656,cr,2,female,20
EA_exp_1a,8,1,16,9,1,z,2,1349,828,miss,3,female,20
EA_exp_1a,8,1,17,175,2,m,2,1498,777,fa,4,female,20
EA_exp_1a,8,1,18,199,2,m,2,1541,1078,fa,4,female,20
EA_exp_1a,8,1,19,134,2,z,3,1389,1279,cr,2,female,20
EA_exp_1a,8,1,20,34,1,m,3,1441,877,hit,5,female,20
EA_exp_1a,8,1,21,87,1,z,2,2301,777,miss,3,female,20
EA_exp_1a,8,1,22,121,2,z,4,1308,2448,cr,1,female,20
EA_exp_1a,8,1,23,158,2,z,3,1936,1724,cr,2,female,20
EA_exp_1a,8,1,24,7,1,m,3,2329,1781,hit,5,female,20
EA_exp_1a,8,1,25,13,1,m,2,1328,628,hit,4,female,20
EA_exp_1a,8,1,26,68,1,m,4,1176,1047,hit,6,female,20
EA_exp_1a,8,1,27,118,2,z,2,1487,653,cr,3,female,20
EA_exp_1a,8,1,28,81,1,z,3,1509,1345,miss,2,female,20
EA_exp_1a,8,1,29,3,1,m,2,1644,1476,hit,4,female,20
EA_exp_1a,8,1,30,102,2,m,2,1322,1359,fa,4,female,20
EA_exp_1a,8,1,31,15,1,m,3,1771,909,hit,5,female,20
EA_exp_1a,8,1,32,4,1,z,1,1352,734,miss,3,female,20
EA_exp_1a,8,1,33,160,2,z,3,1615,1435,cr,2,female,20
EA_exp_1a,8,1,34,113,2,z,3,1683,857,cr,2,female,20
EA_exp_1a,8,1,35,63,1,m,1,2468,735,hit,4,female,20
EA_exp_1a,8,1,36,32,1,m,2,2723,799,hit,4,female,20
EA_exp_1a,8,1,37,27,1,z,2,1511,669,miss,3,female,20
EA_exp_1a,8,1,38,111,2,z,2,1842,500,cr,3,female,20
EA_exp_1a,8,1,39,147,2,z,4,2209,619,cr,1,female,20
EA_exp_1a,8,1,40,133,2,z,4,1500,712,cr,1,female,20
EA_exp_1a,8,1,41,57,1,m,1,5647,709,hit,4,female,20
EA_exp_1a,8,1,42,37,1,m,3,1001,779,hit,5,female,20
EA_exp_1a,8,1,43,39,1,z,3,1278,1972,miss,2,female,20
EA_exp_1a,8,1,44,112,2,z,2,1480,453,cr,3,female,20
EA_exp_1a,8,1,45,46,1,m,2,4741,383,hit,4,female,20
EA_exp_1a,8,1,46,127,2,z,3,2033,890,cr,2,female,20
EA_exp_1a,8,1,47,185,2,z,3,5287,686,cr,2,female,20
EA_exp_1a,8,1,48,6,1,z,4,1297,505,miss,1,female,20
EA_exp_1a,8,1,49,76,1,m,3,1347,698,hit,5,female,20
EA_exp_1a,8,1,50,123,2,z,4,1183,1466,cr,1,female,20
EA_exp_1a,8,1,51,44,1,z,3,2079,839,miss,2,female,20
EA_exp_1a,8,1,52,73,1,m,3,1142,818,hit,5,female,20
EA_exp_1a,8,1,53,19,1,m,3,3651,490,hit,5,female,20
EA_exp_1a,8,1,54,137,2,z,3,1186,722,cr,2,female,20
EA_exp_1a,8,1,55,24,1,z,2,1604,447,miss,3,female,20
EA_exp_1a,8,1,56,61,1,z,4,1387,512,miss,1,female,20
EA_exp_1a,8,1,57,75,1,z,3,1742,8561,miss,2,female,20
EA_exp_1a,8,1,58,107,2,m,2,1195,980,fa,4,female,20
EA_exp_1a,8,1,59,124,2,z,2,1372,2226,cr,3,female,20
EA_exp_1a,8,1,60,23,1,z,2,1612,675,miss,3,female,20
EA_exp_1a,8,1,61,47,1,m,4,1912,823,hit,6,female,20
EA_exp_1a,8,1,62,51,1,m,2,1397,1001,hit,4,female,20
EA_exp_1a,8,1,63,14,1,m,4,1138,1150,hit,6,female,20
EA_exp_1a,8,1,64,117,2,m,2,22803,1050,fa,4,female,20
EA_exp_1a,8,1,65,77,1,m,3,1920,590,hit,5,female,20
EA_exp_1a,8,1,66,43,1,m,2,1192,546,hit,4,female,20
EA_exp_1a,8,1,67,92,1,z,3,2281,876,miss,2,female,20
EA_exp_1a,8,1,68,132,2,z,2,1433,427,cr,3,female,20
EA_exp_1a,8,1,69,21,1,m,2,1402,461,hit,4,female,20
EA_exp_1a,8,1,70,189,2,z,2,1635,468,cr,3,female,20
EA_exp_1a,8,1,71,169,2,m,4,1283,425,fa,6,female,20
EA_exp_1a,8,1,72,177,2,z,3,1339,1038,cr,2,female,20
EA_exp_1a,8,1,73,88,1,m,4,2423,446,hit,6,female,20
EA_exp_1a,8,1,74,84,1,z,4,1325,1411,miss,1,female,20
EA_exp_1a,8,1,75,65,1,m,3,2250,634,hit,5,female,20
EA_exp_1a,8,1,76,170,2,z,3,1171,1229,cr,2,female,20
EA_exp_1a,8,1,77,69,1,m,2,1212,598,hit,4,female,20
EA_exp_1a,8,1,78,90,1,z,2,1184,667,miss,3,female,20
EA_exp_1a,8,1,79,22,1,m,3,3551,460,hit,5,female,20
EA_exp_1a,8,1,80,168,2,z,4,1288,465,cr,1,female,20
EA_exp_1a,8,1,81,30,1,z,4,1344,371,miss,1,female,20
EA_exp_1a,8,1,82,100,1,m,4,1191,657,hit,6,female,20
EA_exp_1a,8,1,83,2,1,z,2,1286,493,miss,3,female,20
EA_exp_1a,8,1,84,48,1,m,1,4748,470,hit,4,female,20
EA_exp_1a,8,1,85,74,1,m,4,1238,653,hit,6,female,20
EA_exp_1a,8,1,86,135,2,z,2,10606,694,cr,3,female,20
EA_exp_1a,8,1,87,152,2,z,2,1848,1098,cr,3,female,20
EA_exp_1a,8,1,88,166,2,z,2,1488,431,cr,3,female,20
EA_exp_1a,8,1,89,178,2,m,2,1309,868,fa,4,female,20
EA_exp_1a,8,1,90,198,2,z,3,1378,468,cr,2,female,20
EA_exp_1a,8,1,91,161,2,z,3,3074,561,cr,2,female,20
EA_exp_1a,8,1,92,26,1,m,3,1756,991,hit,5,female,20
EA_exp_1a,8,1,93,59,1,m,3,25739,653,hit,5,female,20
EA_exp_1a,8,1,94,179,2,z,1,1363,583,cr,3,female,20
EA_exp_1a,8,1,95,8,1,z,1,1347,309,miss,3,female,20
EA_exp_1a,8,1,96,163,2,z,1,1829,1081,cr,3,female,20
EA_exp_1a,8,1,97,78,1,m,4,1580,715,hit,6,female,20
EA_exp_1a,8,1,98,54,1,z,1,1201,329,miss,3,female,20
EA_exp_1a,8,1,99,186,2,z,1,1307,323,cr,3,female,20
EA_exp_1a,8,1,100,120,2,m,2,2342,418,fa,4,female,20
EA_exp_1a,8,1,101,184,2,z,1,1137,319,cr,3,female,20
EA_exp_1a,8,1,102,66,1,m,3,1343,503,hit,5,female,20
EA_exp_1a,8,1,103,131,2,m,2,1475,402,fa,4,female,20
EA_exp_1a,8,1,104,82,1,z,1,1140,1088,miss,3,female,20
EA_exp_1a,8,1,105,194,2,z,1,1765,456,cr,3,female,20
EA_exp_1a,8,1,106,173,2,m,2,17079,854,fa,4,female,20
EA_exp_1a,8,1,107,58,1,z,3,1938,656,miss,2,female,20
EA_exp_1a,8,1,108,128,2,z,1,1509,532,cr,3,female,20
EA_exp_1a,8,1,109,114,2,m,1,1404,449,fa,4,female,20
EA_exp_1a,8,1,110,98,1,m,4,1873,575,hit,6,female,20
EA_exp_1a,8,1,111,129,2,z,1,1051,425,cr,3,female,20
EA_exp_1a,8,1,112,165,2,z,1,1591,452,cr,3,female,20
EA_exp_1a,8,1,113,25,1,m,2,1333,599,hit,4,female,20
EA_exp_1a,8,1,114,119,2,z,1,1422,368,cr,3,female,20
EA_exp_1a,8,1,115,93,1,m,4,1348,535,hit,6,female,20
EA_exp_1a,8,1,116,60,1,z,1,1332,391,miss,3,female,20
EA_exp_1a,8,1,117,31,1,m,3,1639,448,hit,5,female,20
EA_exp_1a,8,1,118,101,2,z,1,2547,899,cr,3,female,20
EA_exp_1a,8,1,119,126,2,z,2,1822,1009,cr,3,female,20
EA_exp_1a,8,1,120,104,2,z,3,1190,595,cr,2,female,20
EA_exp_1a,8,1,121,38,1,z,3,1023,510,miss,2,female,20
EA_exp_1a,8,1,122,192,2,z,3,1202,580,cr,2,female,20
EA_exp_1a,8,1,123,159,2,z,4,5409,864,cr,1,female,20
EA_exp_1a,8,1,124,70,1,z,1,1615,471,miss,3,female,20
EA_exp_1a,8,1,125,115,2,z,2,1155,849,cr,3,female,20
EA_exp_1a,8,1,126,106,2,z,4,1105,510,cr,1,female,20
EA_exp_1a,8,1,127,136,2,z,4,1130,728,cr,1,female,20
EA_exp_1a,8,1,128,200,2,z,1,1533,424,cr,3,female,20
EA_exp_1a,8,1,129,20,1,z,4,1223,688,miss,1,female,20
EA_exp_1a,8,1,130,103,2,z,3,5032,2054,cr,2,female,20
EA_exp_1a,8,1,131,109,2,z,4,1171,465,cr,1,female,20
EA_exp_1a,8,1,132,17,1,z,4,992,513,miss,1,female,20
EA_exp_1a,8,1,133,56,1,z,2,2748,1929,miss,3,female,20
EA_exp_1a,8,1,134,10,1,z,2,1559,409,miss,3,female,20
EA_exp_1a,8,1,135,142,2,z,2,1370,685,cr,3,female,20
EA_exp_1a,8,1,136,154,2,m,1,1395,804,fa,4,female,20
EA_exp_1a,8,1,137,193,2,m,2,1797,1335,fa,4,female,20
EA_exp_1a,8,1,138,138,2,z,1,1490,401,cr,3,female,20
EA_exp_1a,8,1,139,176,2,m,1,1298,566,fa,4,female,20
EA_exp_1a,8,1,140,1,1,m,2,1491,416,hit,4,female,20
EA_exp_1a,8,1,141,144,2,z,3,1457,1264,cr,2,female,20
EA_exp_1a,8,1,142,97,1,m,1,1312,532,hit,4,female,20
EA_exp_1a,8,1,143,167,2,m,2,1302,484,fa,4,female,20
EA_exp_1a,8,1,144,42,1,m,4,3796,980,hit,6,female,20
EA_exp_1a,8,1,145,153,2,m,1,1278,645,fa,4,female,20
EA_exp_1a,8,1,146,53,1,z,3,1435,765,miss,2,female,20
EA_exp_1a,8,1,147,164,2,z,3,2160,1219,cr,2,female,20
EA_exp_1a,8,1,148,143,2,z,1,18434,444,cr,3,female,20
EA_exp_1a,8,1,149,80,1,z,4,1626,707,miss,1,female,20
EA_exp_1a,8,1,150,45,1,z,1,1186,401,miss,3,female,20
EA_exp_1a,8,1,151,130,2,z,1,1779,358,cr,3,female,20
EA_exp_1a,8,1,152,11,1,z,1,1081,326,miss,3,female,20
EA_exp_1a,8,1,153,108,2,z,1,1148,310,cr,3,female,20
EA_exp_1a,8,1,154,72,1,m,1,1165,326,hit,4,female,20
EA_exp_1a,8,1,155,50,1,m,3,2505,464,hit,5,female,20
EA_exp_1a,8,1,156,110,2,z,2,2269,366,cr,3,female,20
EA_exp_1a,8,1,157,182,2,z,1,1729,373,cr,3,female,20
EA_exp_1a,8,1,158,94,1,z,3,1320,413,miss,2,female,20
EA_exp_1a,8,1,159,52,1,z,3,1389,959,miss,2,female,20
EA_exp_1a,8,1,160,183,2,z,3,1417,619,cr,2,female,20
EA_exp_1a,8,1,161,41,1,z,3,12518,361,miss,2,female,20
EA_exp_1a,8,1,162,187,2,z,3,1067,410,cr,2,female,20
EA_exp_1a,8,1,163,162,2,z,2,1275,706,cr,3,female,20
EA_exp_1a,8,1,164,55,1,z,2,1107,548,miss,3,female,20
EA_exp_1a,8,1,165,171,2,m,2,3662,423,fa,4,female,20
EA_exp_1a,8,1,166,16,1,z,1,6664,534,miss,3,female,20
EA_exp_1a,8,1,167,33,1,m,2,1092,271,hit,4,female,20
EA_exp_1a,8,1,168,195,2,z,3,1573,336,cr,2,female,20
EA_exp_1a,8,1,169,85,1,z,1,1203,557,miss,3,female,20
EA_exp_1a,8,1,170,157,2,z,2,1146,852,cr,3,female,20
EA_exp_1a,8,1,171,79,1,m,4,1588,1309,hit,6,female,20
EA_exp_1a,8,1,172,49,1,m,4,1002,460,hit,6,female,20
EA_exp_1a,8,1,173,141,2,m,1,2539,703,fa,4,female,20
EA_exp_1a,8,1,174,67,1,z,2,1638,749,miss,3,female,20
EA_exp_1a,8,1,175,196,2,z,1,1537,2813,cr,3,female,20
EA_exp_1a,8,1,176,174,2,z,2,1246,934,cr,3,female,20
EA_exp_1a,8,1,177,116,2,z,4,1504,879,cr,1,female,20
EA_exp_1a,8,1,178,188,2,z,4,1448,637,cr,1,female,20
EA_exp_1a,8,1,179,89,1,z,2,1174,1167,miss,3,female,20
EA_exp_1a,8,1,180,62,1,z,4,1780,420,miss,1,female,20
EA_exp_1a,8,1,181,151,2,z,3,5445,1124,cr,2,female,20
EA_exp_1a,8,1,182,105,2,z,3,1252,319,cr,2,female,20
EA_exp_1a,8,1,183,140,2,z,2,1150,1680,cr,3,female,20
EA_exp_1a,8,1,184,172,2,m,2,1133,474,fa,4,female,20
EA_exp_1a,8,1,185,5,1,z,1,2089,351,miss,3,female,20
EA_exp_1a,8,1,186,28,1,m,3,1220,907,hit,5,female,20
EA_exp_1a,8,1,187,18,1,m,4,1412,697,hit,6,female,20
EA_exp_1a,8,1,188,150,2,z,4,2057,422,cr,1,female,20
EA_exp_1a,8,1,189,64,1,m,4,1336,458,hit,6,female,20
EA_exp_1a,8,1,190,122,2,z,3,6279,488,cr,2,female,20
EA_exp_1a,8,1,191,125,2,z,1,12433,862,cr,3,female,20
EA_exp_1a,8,1,192,91,1,z,2,1231,485,miss,3,female,20
EA_exp_1a,8,1,193,86,1,z,1,1136,911,miss,3,female,20
EA_exp_1a,8,1,194,71,1,m,1,1163,439,hit,4,female,20
EA_exp_1a,8,1,195,190,2,m,2,1382,409,fa,4,female,20
EA_exp_1a,8,1,196,149,2,z,4,1306,480,cr,1,female,20
EA_exp_1a,8,1,197,40,1,m,1,1614,519,hit,4,female,20
EA_exp_1a,8,1,198,146,2,z,2,9373,694,cr,3,female,20
EA_exp_1a,8,1,199,83,1,m,3,1179,406,hit,5,female,20
EA_exp_1a,8,1,200,36,1,z,4,1351,330,miss,1,female,20
EA_exp_1a,9,1,1,149,2,m,2,3008,2557,fa,4,female,19
EA_exp_1a,9,1,2,45,1,m,4,3315,1213,hit,6,female,19
EA_exp_1a,9,1,3,128,2,z,2,2971,1200,cr,3,female,19
EA_exp_1a,9,1,4,182,2,m,3,2703,511,fa,5,female,19
EA_exp_1a,9,1,5,130,2,z,2,2570,767,cr,3,female,19
EA_exp_1a,9,1,6,58,1,m,4,3216,410,hit,6,female,19
EA_exp_1a,9,1,7,118,2,z,2,2363,373,cr,3,female,19
EA_exp_1a,9,1,8,5,1,m,4,2184,425,hit,6,female,19
EA_exp_1a,9,1,9,173,2,m,4,1723,400,fa,6,female,19
EA_exp_1a,9,1,10,158,2,z,3,2477,344,cr,2,female,19
EA_exp_1a,9,1,11,175,2,m,2,2971,462,fa,4,female,19
EA_exp_1a,9,1,12,96,1,m,4,1532,314,hit,6,female,19
EA_exp_1a,9,1,13,57,1,z,3,1725,339,miss,2,female,19
EA_exp_1a,9,1,14,8,1,z,2,2213,424,miss,3,female,19
EA_exp_1a,9,1,15,43,1,m,4,1430,328,hit,6,female,19
EA_exp_1a,9,1,16,47,1,m,4,1495,378,hit,6,female,19
EA_exp_1a,9,1,17,63,1,m,4,876,355,hit,6,female,19
EA_exp_1a,9,1,18,35,1,m,4,901,316,hit,6,female,19
EA_exp_1a,9,1,19,46,1,z,4,1615,1193,miss,1,female,19
EA_exp_1a,9,1,20,110,2,z,3,1772,477,cr,2,female,19
EA_exp_1a,9,1,21,113,2,m,1,2126,273,fa,4,female,19
EA_exp_1a,9,1,22,86,1,m,4,1465,310,hit,6,female,19
EA_exp_1a,9,1,23,34,1,m,4,987,237,hit,6,female,19
EA_exp_1a,9,1,24,121,2,z,3,1586,336,cr,2,female,19
EA_exp_1a,9,1,25,189,2,z,3,1283,298,cr,2,female,19
EA_exp_1a,9,1,26,92,1,z,4,1470,398,miss,1,female,19
EA_exp_1a,9,1,27,174,2,z,2,1183,729,cr,3,female,19
EA_exp_1a,9,1,28,139,2,z,2,1451,670,cr,3,female,19
EA_exp_1a,9,1,29,74,1,m,4,913,650,hit,6,female,19
EA_exp_1a,9,1,30,166,2,m,4,1214,361,fa,6,female,19
EA_exp_1a,9,1,31,108,2,z,3,2219,398,cr,2,female,19
EA_exp_1a,9,1,32,142,2,z,4,1294,342,cr,1,female,19
EA_exp_1a,9,1,33,160,2,z,4,1170,340,cr,1,female,19
EA_exp_1a,9,1,34,103,2,z,3,1752,714,cr,2,female,19
EA_exp_1a,9,1,35,198,2,m,2,2254,560,fa,4,female,19
EA_exp_1a,9,1,36,143,2,z,2,1766,494,cr,3,female,19
EA_exp_1a,9,1,37,172,2,z,3,2011,388,cr,2,female,19
EA_exp_1a,9,1,38,38,1,m,2,1463,468,hit,4,female,19
EA_exp_1a,9,1,39,162,2,z,3,1523,1808,cr,2,female,19
EA_exp_1a,9,1,40,156,2,z,4,1384,395,cr,1,female,19
EA_exp_1a,9,1,41,94,1,z,3,1322,337,miss,2,female,19
EA_exp_1a,9,1,42,44,1,m,2,1345,568,hit,4,female,19
EA_exp_1a,9,1,43,18,1,m,4,2213,307,hit,6,female,19
EA_exp_1a,9,1,44,104,2,m,1,1830,778,fa,4,female,19
EA_exp_1a,9,1,45,117,2,m,1,4521,4128,fa,4,female,19
EA_exp_1a,9,1,46,24,1,m,4,2413,277,hit,6,female,19
EA_exp_1a,9,1,47,66,1,m,4,634,204,hit,6,female,19
EA_exp_1a,9,1,48,144,2,z,3,1777,310,cr,2,female,19
EA_exp_1a,9,1,49,91,1,m,4,1569,422,hit,6,female,19
EA_exp_1a,9,1,50,68,1,z,3,3015,408,miss,2,female,19
EA_exp_1a,9,1,51,115,2,z,2,1959,549,cr,3,female,19
EA_exp_1a,9,1,52,195,2,z,2,1409,304,cr,3,female,19
EA_exp_1a,9,1,53,135,2,z,4,1781,376,cr,1,female,19
EA_exp_1a,9,1,54,147,2,z,3,1254,754,cr,2,female,19
EA_exp_1a,9,1,55,111,2,z,4,933,424,cr,1,female,19
EA_exp_1a,9,1,56,13,1,m,2,1222,497,hit,4,female,19
EA_exp_1a,9,1,57,177,2,z,4,1839,527,cr,1,female,19
EA_exp_1a,9,1,58,59,1,m,4,987,606,hit,6,female,19
EA_exp_1a,9,1,59,10,1,m,3,1559,338,hit,5,female,19
EA_exp_1a,9,1,60,132,2,z,4,2998,935,cr,1,female,19
EA_exp_1a,9,1,61,178,2,z,4,1458,274,cr,1,female,19
EA_exp_1a,9,1,62,193,2,m,4,1846,264,fa,6,female,19
EA_exp_1a,9,1,63,14,1,m,4,1439,224,hit,6,female,19
EA_exp_1a,9,1,64,87,1,z,4,2100,221,miss,1,female,19
EA_exp_1a,9,1,65,124,2,z,3,1660,380,cr,2,female,19
EA_exp_1a,9,1,66,164,2,z,2,1616,1224,cr,3,female,19
EA_exp_1a,9,1,67,105,2,z,4,1160,932,cr,1,female,19
EA_exp_1a,9,1,68,134,2,z,4,1582,506,cr,1,female,19
EA_exp_1a,9,1,69,106,2,z,4,873,238,cr,1,female,19
EA_exp_1a,9,1,70,70,1,m,4,1223,175,hit,6,female,19
EA_exp_1a,9,1,71,72,1,m,4,1160,242,hit,6,female,19
EA_exp_1a,9,1,72,191,2,z,3,1338,319,cr,2,female,19
EA_exp_1a,9,1,73,138,2,z,3,1762,262,cr,2,female,19
EA_exp_1a,9,1,74,116,2,z,3,782,312,cr,2,female,19
EA_exp_1a,9,1,75,19,1,m,4,1484,555,hit,6,female,19
EA_exp_1a,9,1,76,25,1,m,4,2213,215,hit,6,female,19
EA_exp_1a,9,1,77,49,1,m,4,1779,210,hit,6,female,19
EA_exp_1a,9,1,78,179,2,z,3,1626,260,cr,2,female,19
EA_exp_1a,9,1,79,101,2,z,4,2572,1662,cr,1,female,19
EA_exp_1a,9,1,80,37,1,m,4,1738,241,hit,6,female,19
EA_exp_1a,9,1,81,61,1,z,3,2434,288,miss,2,female,19
EA_exp_1a,9,1,82,185,2,z,4,1062,389,cr,1,female,19
EA_exp_1a,9,1,83,93,1,m,4,886,237,hit,6,female,19
EA_exp_1a,9,1,84,169,2,z,2,1109,529,cr,3,female,19
EA_exp_1a,9,1,85,151,2,z,2,767,265,cr,3,female,19
EA_exp_1a,9,1,86,107,2,z,3,621,320,cr,2,female,19
EA_exp_1a,9,1,87,170,2,z,4,1283,459,cr,1,female,19
EA_exp_1a,9,1,88,112,2,z,4,1255,289,cr,1,female,19
EA_exp_1a,9,1,89,186,2,m,4,1012,503,fa,6,female,19
EA_exp_1a,9,1,90,79,1,m,4,820,221,hit,6,female,19
EA_exp_1a,9,1,91,90,1,m,4,742,161,hit,6,female,19
EA_exp_1a,9,1,92,171,2,z,3,1181,391,cr,2,female,19
EA_exp_1a,9,1,93,73,1,z,3,1369,459,miss,2,female,19
EA_exp_1a,9,1,94,119,2,z,3,10537,575,cr,2,female,19
EA_exp_1a,9,1,95,98,1,m,3,6135,382,hit,5,female,19
EA_exp_1a,9,1,96,67,1,z,3,1375,258,miss,2,female,19
EA_exp_1a,9,1,97,60,1,m,4,1510,726,hit,6,female,19
EA_exp_1a,9,1,98,89,1,z,3,2243,314,miss,2,female,19
EA_exp_1a,9,1,99,155,2,z,4,879,196,cr,1,female,19
EA_exp_1a,9,1,100,27,1,m,4,2192,672,hit,6,female,19
EA_exp_1a,9,1,101,2,1,m,4,1394,519,hit,6,female,19
EA_exp_1a,9,1,102,7,1,m,2,1555,896,hit,4,female,19
EA_exp_1a,9,1,103,76,1,m,4,1135,554,hit,6,female,19
EA_exp_1a,9,1,104,26,1,m,4,1108,306,hit,6,female,19
EA_exp_1a,9,1,105,184,2,z,4,1687,365,cr,1,female,19
EA_exp_1a,9,1,106,122,2,m,3,1440,432,fa,5,female,19
EA_exp_1a,9,1,107,200,2,z,4,1137,717,cr,1,female,19
EA_exp_1a,9,1,108,48,1,m,4,1391,610,hit,6,female,19
EA_exp_1a,9,1,109,120,2,z,3,1257,291,cr,2,female,19
EA_exp_1a,9,1,110,4,1,z,4,3049,376,miss,1,female,19
EA_exp_1a,9,1,111,163,2,z,4,1434,587,cr,1,female,19
EA_exp_1a,9,1,112,192,2,z,4,1877,579,cr,1,female,19
EA_exp_1a,9,1,113,81,1,z,4,4123,369,miss,1,female,19
EA_exp_1a,9,1,114,133,2,z,4,953,935,cr,1,female,19
EA_exp_1a,9,1,115,187,2,z,3,929,471,cr,2,female,19
EA_exp_1a,9,1,116,140,2,z,4,806,270,cr,1,female,19
EA_exp_1a,9,1,117,152,2,m,4,1571,863,fa,6,female,19
EA_exp_1a,9,1,118,188,2,z,4,1819,656,cr,1,female,19
EA_exp_1a,9,1,119,95,1,m,4,1320,876,hit,6,female,19
EA_exp_1a,9,1,120,150,2,z,4,6652,744,cr,1,female,19
EA_exp_1a,9,1,121,157,2,z,3,1789,432,cr,2,female,19
EA_exp_1a,9,1,122,22,1,z,1,1037,2128,miss,3,female,19
EA_exp_1a,9,1,123,197,2,m,4,2364,1255,fa,6,female,19
EA_exp_1a,9,1,124,82,1,m,4,1558,481,hit,6,female,19
EA_exp_1a,9,1,125,15,1,z,4,1535,444,miss,1,female,19
EA_exp_1a,9,1,126,28,1,m,4,1548,439,hit,6,female,19
EA_exp_1a,9,1,127,167,2,z,3,1445,454,cr,2,female,19
EA_exp_1a,9,1,128,40,1,z,4,1429,501,miss,1,female,19
EA_exp_1a,9,1,129,21,1,z,4,1330,583,miss,1,female,19
EA_exp_1a,9,1,130,85,1,m,4,1478,607,hit,6,female,19
EA_exp_1a,9,1,131,102,2,z,3,2090,623,cr,2,female,19
EA_exp_1a,9,1,132,161,2,z,4,1529,388,cr,1,female,19
EA_exp_1a,9,1,133,88,1,m,4,1317,474,hit,6,female,19
EA_exp_1a,9,1,134,65,1,m,4,1418,489,hit,6,female,19
EA_exp_1a,9,1,135,77,1,m,4,1287,558,hit,6,female,19
EA_exp_1a,9,1,136,127,2,m,4,1412,506,fa,6,female,19
EA_exp_1a,9,1,137,129,2,z,2,1733,619,cr,3,female,19
EA_exp_1a,9,1,138,181,2,z,2,1940,736,cr,3,female,19
EA_exp_1a,9,1,139,123,2,z,4,1300,569,cr,1,female,19
EA_exp_1a,9,1,140,99,1,z,2,1476,625,miss,3,female,19
EA_exp_1a,9,1,141,12,1,m,4,3930,1206,hit,6,female,19
EA_exp_1a,9,1,142,20,1,z,3,14696,820,miss,2,female,19
EA_exp_1a,9,1,143,32,1,m,4,3299,714,hit,6,female,19
EA_exp_1a,9,1,144,141,2,z,4,1645,471,cr,1,female,19
EA_exp_1a,9,1,145,55,1,z,4,1029,422,miss,1,female,19
EA_exp_1a,9,1,146,17,1,m,4,1823,534,hit,6,female,19
EA_exp_1a,9,1,147,148,2,z,4,1330,422,cr,1,female,19
EA_exp_1a,9,1,148,33,1,m,2,3879,550,hit,4,female,19
EA_exp_1a,9,1,149,31,1,m,4,1246,425,hit,6,female,19
EA_exp_1a,9,1,150,29,1,m,4,1112,486,hit,6,female,19
EA_exp_1a,9,1,151,183,2,z,4,1555,479,cr,1,female,19
EA_exp_1a,9,1,152,145,2,z,4,2541,561,cr,1,female,19
EA_exp_1a,9,1,153,3,1,m,4,1150,552,hit,6,female,19
EA_exp_1a,9,1,154,64,1,m,4,1635,475,hit,6,female,19
EA_exp_1a,9,1,155,165,2,z,2,1355,525,cr,3,female,19
EA_exp_1a,9,1,156,97,1,m,4,1291,431,hit,6,female,19
EA_exp_1a,9,1,157,39,1,m,4,1422,432,hit,6,female,19
EA_exp_1a,9,1,158,125,2,m,3,1296,470,fa,5,female,19
EA_exp_1a,9,1,159,9,1,m,4,1060,483,hit,6,female,19
EA_exp_1a,9,1,160,180,2,m,2,2673,576,fa,4,female,19
EA_exp_1a,9,1,161,41,1,m,4,1816,443,hit,6,female,19
EA_exp_1a,9,1,162,83,1,m,4,960,430,hit,6,female,19
EA_exp_1a,9,1,163,80,1,m,4,1036,414,hit,6,female,19
EA_exp_1a,9,1,164,137,2,m,4,895,389,fa,6,female,19
EA_exp_1a,9,1,165,78,1,m,4,2088,397,hit,6,female,19
EA_exp_1a,9,1,166,30,1,m,4,1072,398,hit,6,female,19
EA_exp_1a,9,1,167,196,2,z,2,2363,636,cr,3,female,19
EA_exp_1a,9,1,168,100,1,m,4,1474,400,hit,6,female,19
EA_exp_1a,9,1,169,131,2,m,4,1363,596,fa,6,female,19
EA_exp_1a,9,1,170,75,1,m,2,1886,764,hit,4,female,19
EA_exp_1a,9,1,171,109,2,z,3,1420,416,cr,2,female,19
EA_exp_1a,9,1,172,6,1,m,3,1405,370,hit,5,female,19
EA_exp_1a,9,1,173,42,1,m,4,1077,434,hit,6,female,19
EA_exp_1a,9,1,174,56,1,z,3,1843,306,miss,2,female,19
EA_exp_1a,9,1,175,194,2,z,3,1382,649,cr,2,female,19
EA_exp_1a,9,1,176,71,1,m,4,1313,534,hit,6,female,19
EA_exp_1a,9,1,177,199,2,m,2,2127,485,fa,4,female,19
EA_exp_1a,9,1,178,154,2,z,3,1693,424,cr,2,female,19
EA_exp_1a,9,1,179,51,1,z,3,1496,406,miss,2,female,19
EA_exp_1a,9,1,180,1,1,m,4,1414,345,hit,6,female,19
EA_exp_1a,9,1,181,11,1,m,4,1198,341,hit,6,female,19
EA_exp_1a,9,1,182,54,1,z,3,1625,1586,miss,2,female,19
EA_exp_1a,9,1,183,126,2,z,3,1698,457,cr,2,female,19
EA_exp_1a,9,1,184,176,2,z,2,6099,590,cr,3,female,19
EA_exp_1a,9,1,185,136,2,z,1,3571,1298,cr,3,female,19
EA_exp_1a,9,1,186,16,1,m,4,1150,524,hit,6,female,19
EA_exp_1a,9,1,187,23,1,m,4,3336,764,hit,6,female,19
EA_exp_1a,9,1,188,153,2,m,4,6113,564,fa,6,female,19
EA_exp_1a,9,1,189,36,1,m,1,14274,1182,hit,4,female,19
EA_exp_1a,9,1,190,62,1,m,2,1714,309,hit,4,female,19
EA_exp_1a,9,1,191,190,2,z,3,2313,248,cr,2,female,19
EA_exp_1a,9,1,192,52,1,m,3,1536,219,hit,5,female,19
EA_exp_1a,9,1,193,84,1,m,4,1411,261,hit,6,female,19
EA_exp_1a,9,1,194,168,2,z,4,1428,172,cr,1,female,19
EA_exp_1a,9,1,195,159,2,z,4,932,283,cr,1,female,19
EA_exp_1a,9,1,196,146,2,z,4,1105,303,cr,1,female,19
EA_exp_1a,9,1,197,114,2,z,3,1571,383,cr,2,female,19
EA_exp_1a,9,1,198,69,1,m,4,1472,272,hit,6,female,19
EA_exp_1a,9,1,199,50,1,m,4,1000,215,hit,6,female,19
EA_exp_1a,9,1,200,53,1,z,4,1634,297,miss,1,female,19
EA_exp_1a,10,1,1,86,1,m,4,5542,4845,hit,6,male,20
EA_exp_1a,10,1,2,87,1,m,4,6250,2317,hit,6,male,20
EA_exp_1a,10,1,3,17,1,m,2,2400,2556,hit,4,male,20
EA_exp_1a,10,1,4,151,2,z,4,2886,7404,cr,1,male,20
EA_exp_1a,10,1,5,78,1,z,4,2759,1824,miss,1,male,20
EA_exp_1a,10,1,6,95,1,z,4,5129,821,miss,1,male,20
EA_exp_1a,10,1,7,73,1,z,4,1463,1092,miss,1,male,20
EA_exp_1a,10,1,8,57,1,z,2,3721,2239,miss,3,male,20
EA_exp_1a,10,1,9,13,1,m,4,3768,874,hit,6,male,20
EA_exp_1a,10,1,10,188,2,z,2,1822,1912,cr,3,male,20
EA_exp_1a,10,1,11,84,1,m,4,4415,855,hit,6,male,20
EA_exp_1a,10,1,12,82,1,m,1,8279,1620,hit,4,male,20
EA_exp_1a,10,1,13,184,2,z,4,5686,843,cr,1,male,20
EA_exp_1a,10,1,14,173,2,m,3,3591,1300,fa,5,male,20
EA_exp_1a,10,1,15,26,1,z,2,2590,1731,miss,3,male,20
EA_exp_1a,10,1,16,158,2,z,4,2479,725,cr,1,male,20
EA_exp_1a,10,1,17,108,2,z,4,1418,731,cr,1,male,20
EA_exp_1a,10,1,18,72,1,m,3,2945,1666,hit,5,male,20
EA_exp_1a,10,1,19,162,2,m,2,2736,2717,fa,4,male,20
EA_exp_1a,10,1,20,195,2,z,3,2427,890,cr,2,male,20
EA_exp_1a,10,1,21,71,1,m,4,1703,637,hit,6,male,20
EA_exp_1a,10,1,22,169,2,z,2,4165,1080,cr,3,male,20
EA_exp_1a,10,1,23,104,2,m,3,9149,2234,fa,5,male,20
EA_exp_1a,10,1,24,194,2,z,1,3603,3179,cr,3,male,20
EA_exp_1a,10,1,25,164,2,m,2,5104,1867,fa,4,male,20
EA_exp_1a,10,1,26,132,2,z,4,2610,963,cr,1,male,20
EA_exp_1a,10,1,27,102,2,m,4,2446,710,fa,6,male,20
EA_exp_1a,10,1,28,185,2,z,4,1707,2271,cr,1,male,20
EA_exp_1a,10,1,29,52,1,m,4,2790,111,hit,6,male,20
EA_exp_1a,10,1,30,69,1,m,4,1482,171,hit,6,male,20
EA_exp_1a,10,1,31,21,1,m,4,1029,214,hit,6,male,20
EA_exp_1a,10,1,32,186,2,z,3,4910,755,cr,2,male,20
EA_exp_1a,10,1,33,19,1,m,3,14358,466,hit,5,male,20
EA_exp_1a,10,1,34,199,2,z,3,4338,637,cr,2,male,20
EA_exp_1a,10,1,35,141,2,z,4,1942,384,cr,1,male,20
EA_exp_1a,10,1,36,128,2,m,4,5137,286,fa,6,male,20
EA_exp_1a,10,1,37,80,1,z,3,2307,272,miss,2,male,20
EA_exp_1a,10,1,38,58,1,m,4,2342,290,hit,6,male,20
EA_exp_1a,10,1,39,3,1,m,4,2519,268,hit,6,male,20
EA_exp_1a,10,1,40,44,1,z,4,1652,331,miss,1,male,20
EA_exp_1a,10,1,41,168,2,m,4,1648,311,fa,6,male,20
EA_exp_1a,10,1,42,109,2,z,4,3785,414,cr,1,male,20
EA_exp_1a,10,1,43,97,1,m,4,1392,257,hit,6,male,20
EA_exp_1a,10,1,44,66,1,m,4,1767,251,hit,6,male,20
EA_exp_1a,10,1,45,142,2,m,3,2991,564,fa,5,male,20
EA_exp_1a,10,1,46,93,1,m,4,1467,253,hit,6,male,20
EA_exp_1a,10,1,47,135,2,z,4,4343,255,cr,1,male,20
EA_exp_1a,10,1,48,51,1,m,4,3673,237,hit,6,male,20
EA_exp_1a,10,1,49,175,2,m,2,3413,294,fa,4,male,20
EA_exp_1a,10,1,50,160,2,m,1,2474,947,fa,4,male,20
EA_exp_1a,10,1,51,2,1,m,4,2974,241,hit,6,male,20
EA_exp_1a,10,1,52,147,2,z,3,11689,399,cr,2,male,20
EA_exp_1a,10,1,53,65,1,z,4,3578,362,miss,1,male,20
EA_exp_1a,10,1,54,123,2,z,4,3869,333,cr,1,male,20
EA_exp_1a,10,1,55,10,1,m,4,1187,250,hit,6,male,20
EA_exp_1a,10,1,56,23,1,z,4,1396,388,miss,1,male,20
EA_exp_1a,10,1,57,47,1,z,4,1540,336,miss,1,male,20
EA_exp_1a,10,1,58,190,2,m,4,2709,321,fa,6,male,20
EA_exp_1a,10,1,59,101,2,z,3,1093,338,cr,2,male,20
EA_exp_1a,10,1,60,12,1,z,3,3431,886,miss,2,male,20
EA_exp_1a,10,1,61,7,1,m,4,1286,202,hit,6,male,20
EA_exp_1a,10,1,62,145,2,m,4,818,174,fa,6,male,20
EA_exp_1a,10,1,63,144,2,z,4,1800,728,cr,1,male,20
EA_exp_1a,10,1,64,177,2,z,3,4571,303,cr,2,male,20
EA_exp_1a,10,1,65,172,2,z,3,5925,288,cr,2,male,20
EA_exp_1a,10,1,66,14,1,m,4,3142,224,hit,6,male,20
EA_exp_1a,10,1,67,99,1,m,4,826,179,hit,6,male,20
EA_exp_1a,10,1,68,43,1,m,4,729,169,hit,6,male,20
EA_exp_1a,10,1,69,174,2,z,2,1730,471,cr,3,male,20
EA_exp_1a,10,1,70,90,1,z,4,3091,484,miss,1,male,20
EA_exp_1a,10,1,71,148,2,z,4,2018,346,cr,1,male,20
EA_exp_1a,10,1,72,126,2,m,4,2349,250,fa,6,male,20
EA_exp_1a,10,1,73,121,2,z,3,3921,286,cr,2,male,20
EA_exp_1a,10,1,74,5,1,z,3,1074,258,miss,2,male,20
EA_exp_1a,10,1,75,48,1,m,4,4713,214,hit,6,male,20
EA_exp_1a,10,1,76,146,2,z,2,1313,676,cr,3,male,20
EA_exp_1a,10,1,77,67,1,z,4,3626,419,miss,1,male,20
EA_exp_1a,10,1,78,53,1,m,4,1525,287,hit,6,male,20
EA_exp_1a,10,1,79,139,2,z,3,1076,275,cr,2,male,20
EA_exp_1a,10,1,80,197,2,m,4,2812,194,fa,6,male,20
EA_exp_1a,10,1,81,62,1,z,3,4814,549,miss,2,male,20
EA_exp_1a,10,1,82,116,2,m,4,1184,219,fa,6,male,20
EA_exp_1a,10,1,83,140,2,z,1,1589,942,cr,3,male,20
EA_exp_1a,10,1,84,49,1,m,4,1704,303,hit,6,male,20
EA_exp_1a,10,1,85,136,2,z,4,2980,310,cr,1,male,20
EA_exp_1a,10,1,86,166,2,m,4,944,238,fa,6,male,20
EA_exp_1a,10,1,87,154,2,z,2,1315,266,cr,3,male,20
EA_exp_1a,10,1,88,110,2,z,4,6692,271,cr,1,male,20
EA_exp_1a,10,1,89,50,1,m,4,2703,211,hit,6,male,20
EA_exp_1a,10,1,90,94,1,m,4,746,199,hit,6,male,20
EA_exp_1a,10,1,91,42,1,m,4,1312,213,hit,6,male,20
EA_exp_1a,10,1,92,131,2,z,2,2061,5029,cr,3,male,20
EA_exp_1a,10,1,93,54,1,m,4,2718,155,hit,6,male,20
EA_exp_1a,10,1,94,127,2,m,4,1046,165,fa,6,male,20
EA_exp_1a,10,1,95,181,2,m,4,2080,166,fa,6,male,20
EA_exp_1a,10,1,96,60,1,z,2,1760,437,miss,3,male,20
EA_exp_1a,10,1,97,150,2,z,3,2433,284,cr,2,male,20
EA_exp_1a,10,1,98,105,2,z,4,3907,368,cr,1,male,20
EA_exp_1a,10,1,99,15,1,m,4,961,229,hit,6,male,20
EA_exp_1a,10,1,100,92,1,z,2,1628,293,miss,3,male,20
EA_exp_1a,10,1,101,68,1,m,4,1804,269,hit,6,male,20
EA_exp_1a,10,1,102,36,1,m,4,3686,185,hit,6,male,20
EA_exp_1a,10,1,103,152,2,m,4,1045,291,fa,6,male,20
EA_exp_1a,10,1,104,137,2,z,2,1080,311,cr,3,male,20
EA_exp_1a,10,1,105,29,1,z,1,1242,2932,miss,3,male,20
EA_exp_1a,10,1,106,24,1,m,2,7040,319,hit,4,male,20
EA_exp_1a,10,1,107,112,2,m,2,2146,215,fa,4,male,20
EA_exp_1a,10,1,108,171,2,m,4,5123,221,fa,6,male,20
EA_exp_1a,10,1,109,77,1,m,3,1209,1088,hit,5,male,20
EA_exp_1a,10,1,110,81,1,z,3,5252,461,miss,2,male,20
EA_exp_1a,10,1,111,46,1,m,4,1403,206,hit,6,male,20
EA_exp_1a,10,1,112,41,1,m,3,2519,252,hit,5,male,20
EA_exp_1a,10,1,113,61,1,m,2,1468,193,hit,4,male,20
EA_exp_1a,10,1,114,9,1,m,3,3353,206,hit,5,male,20
EA_exp_1a,10,1,115,39,1,m,3,5991,417,hit,5,male,20
EA_exp_1a,10,1,116,20,1,m,4,2913,198,hit,6,male,20
EA_exp_1a,10,1,117,106,2,z,4,2159,322,cr,1,male,20
EA_exp_1a,10,1,118,32,1,z,4,2361,482,miss,1,male,20
EA_exp_1a,10,1,119,138,2,z,3,1925,333,cr,2,male,20
EA_exp_1a,10,1,120,38,1,z,2,1699,790,miss,3,male,20
EA_exp_1a,10,1,121,130,2,z,3,790,482,cr,2,male,20
EA_exp_1a,10,1,122,76,1,z,3,2014,377,miss,2,male,20
EA_exp_1a,10,1,123,187,2,m,4,4061,178,fa,6,male,20
EA_exp_1a,10,1,124,167,2,z,4,2623,270,cr,1,male,20
EA_exp_1a,10,1,125,4,1,m,4,1236,221,hit,6,male,20
EA_exp_1a,10,1,126,96,1,m,4,1270,652,hit,6,male,20
EA_exp_1a,10,1,127,28,1,z,3,5984,1821,miss,2,male,20
EA_exp_1a,10,1,128,176,2,m,4,1652,221,fa,6,male,20
EA_exp_1a,10,1,129,125,2,m,4,1076,228,fa,6,male,20
EA_exp_1a,10,1,130,18,1,m,4,1196,182,hit,6,male,20
EA_exp_1a,10,1,131,40,1,m,4,832,200,hit,6,male,20
EA_exp_1a,10,1,132,178,2,m,3,2365,1067,fa,5,male,20
EA_exp_1a,10,1,133,59,1,z,3,4292,639,miss,2,male,20
EA_exp_1a,10,1,134,117,2,z,3,2680,693,cr,2,male,20
EA_exp_1a,10,1,135,170,2,m,2,5014,397,fa,4,male,20
EA_exp_1a,10,1,136,107,2,m,2,3158,249,fa,4,male,20
EA_exp_1a,10,1,137,133,2,z,3,5059,224,cr,2,male,20
EA_exp_1a,10,1,138,74,1,m,2,1815,568,hit,4,male,20
EA_exp_1a,10,1,139,129,2,m,4,5620,188,fa,6,male,20
EA_exp_1a,10,1,140,189,2,z,3,4696,228,cr,2,male,20
EA_exp_1a,10,1,141,98,1,z,3,1196,229,miss,2,male,20
EA_exp_1a,10,1,142,198,2,z,3,2758,600,cr,2,male,20
EA_exp_1a,10,1,143,56,1,m,4,1139,206,hit,6,male,20
EA_exp_1a,10,1,144,31,1,z,3,3014,552,miss,2,male,20
EA_exp_1a,10,1,145,191,2,z,3,2467,282,cr,2,male,20
EA_exp_1a,10,1,146,55,1,m,4,1792,161,hit,6,male,20
