exp,idx,cbcond,trial,stimID,cond,KP_zm,KP_conf,RT_zm,RT_conf,hmfc,rating16,sex_kp_mfor,age_kp
EA_exp_1b,1,1,1,61,1,m,2,4035,3768,hit,4,female,23
EA_exp_1b,1,1,2,90,1,z,3,1428,1394,miss,2,female,23
EA_exp_1b,1,1,3,99,1,m,4,1704,945,hit,6,female,23
EA_exp_1b,1,1,4,26,1,z,4,1645,548,miss,1,female,23
EA_exp_1b,1,1,5,147,2,z,2,2158,787,cr,3,female,23
EA_exp_1b,1,1,6,156,2,m,2,1158,480,fa,4,female,23
EA_exp_1b,1,1,7,157,2,m,3,2398,664,fa,5,female,23
EA_exp_1b,1,1,8,80,1,m,4,1549,1018,hit,6,female,23
EA_exp_1b,1,1,9,32,1,z,3,1329,903,miss,2,female,23
EA_exp_1b,1,1,10,47,1,m,3,1106,865,hit,5,female,23
EA_exp_1b,1,1,11,44,1,m,4,1854,559,hit,6,female,23
EA_exp_1b,1,1,12,139,2,z,4,1338,542,cr,1,female,23
EA_exp_1b,1,1,13,98,1,z,3,1564,453,miss,2,female,23
EA_exp_1b,1,1,14,136,2,z,3,1154,399,cr,2,female,23
EA_exp_1b,1,1,15,19,1,m,4,1410,322,hit,6,female,23
EA_exp_1b,1,1,16,123,2,z,2,1334,426,cr,3,female,23
EA_exp_1b,1,1,17,101,2,z,3,1255,498,cr,2,female,23
EA_exp_1b,1,1,18,183,2,z,2,1616,441,cr,3,female,23
EA_exp_1b,1,1,19,94,1,m,4,1112,453,hit,6,female,23
EA_exp_1b,1,1,20,22,1,z,3,1763,391,miss,2,female,23
EA_exp_1b,1,1,21,100,1,m,3,1129,341,hit,5,female,23
EA_exp_1b,1,1,22,24,1,m,3,889,271,hit,5,female,23
EA_exp_1b,1,1,23,150,2,z,2,1316,362,cr,3,female,23
EA_exp_1b,1,1,24,27,1,m,3,988,367,hit,5,female,23
EA_exp_1b,1,1,25,30,1,z,2,1200,443,miss,3,female,23
EA_exp_1b,1,1,26,143,2,m,3,854,418,fa,5,female,23
EA_exp_1b,1,1,27,82,1,m,4,738,367,hit,6,female,23
EA_exp_1b,1,1,28,8,1,m,4,1136,749,hit,6,female,23
EA_exp_1b,1,1,29,191,2,m,3,1104,414,fa,5,female,23
EA_exp_1b,1,1,30,66,1,m,4,753,411,hit,6,female,23
EA_exp_1b,1,1,31,69,1,z,3,1612,485,miss,2,female,23
EA_exp_1b,1,1,32,176,2,z,2,1616,396,cr,3,female,23
EA_exp_1b,1,1,33,76,1,m,4,1547,393,hit,6,female,23
EA_exp_1b,1,1,34,178,2,z,3,1913,360,cr,2,female,23
EA_exp_1b,1,1,35,162,2,z,4,1209,676,cr,1,female,23
EA_exp_1b,1,1,36,87,1,m,4,1227,419,hit,6,female,23
EA_exp_1b,1,1,37,54,1,m,4,753,303,hit,6,female,23
EA_exp_1b,1,1,38,132,2,m,3,1187,318,fa,5,female,23
EA_exp_1b,1,1,39,23,1,z,3,1186,365,miss,2,female,23
EA_exp_1b,1,1,40,16,1,z,3,911,341,miss,2,female,23
EA_exp_1b,1,1,41,35,1,z,2,1207,401,miss,3,female,23
EA_exp_1b,1,1,42,165,2,m,3,851,298,fa,5,female,23
EA_exp_1b,1,1,43,170,2,z,3,1360,386,cr,2,female,23
EA_exp_1b,1,1,44,186,2,z,2,1043,356,cr,3,female,23
EA_exp_1b,1,1,45,121,2,z,4,916,396,cr,1,female,23
EA_exp_1b,1,1,46,5,1,m,4,1005,542,hit,6,female,23
EA_exp_1b,1,1,47,167,2,z,4,1050,442,cr,1,female,23
EA_exp_1b,1,1,48,109,2,m,4,776,288,fa,6,female,23
EA_exp_1b,1,1,49,74,1,m,4,777,228,hit,6,female,23
EA_exp_1b,1,1,50,152,2,z,3,1547,344,cr,2,female,23
EA_exp_1b,1,1,51,28,1,m,4,845,323,hit,6,female,23
EA_exp_1b,1,1,52,81,1,z,3,1512,340,miss,2,female,23
EA_exp_1b,1,1,53,118,2,z,3,964,331,cr,2,female,23
EA_exp_1b,1,1,54,48,1,z,3,1408,321,miss,2,female,23
EA_exp_1b,1,1,55,85,1,m,2,1812,310,hit,4,female,23
EA_exp_1b,1,1,56,89,1,m,3,810,356,hit,5,female,23
EA_exp_1b,1,1,57,133,2,z,4,1063,454,cr,1,female,23
EA_exp_1b,1,1,58,40,1,z,2,1654,525,miss,3,female,23
EA_exp_1b,1,1,59,83,1,z,3,1706,415,miss,2,female,23
EA_exp_1b,1,1,60,43,1,m,4,945,372,hit,6,female,23
EA_exp_1b,1,1,61,105,2,z,4,1140,386,cr,1,female,23
EA_exp_1b,1,1,62,135,2,z,3,1553,431,cr,2,female,23
EA_exp_1b,1,1,63,122,2,m,3,1549,379,fa,5,female,23
EA_exp_1b,1,1,64,153,2,z,3,1133,361,cr,2,female,23
EA_exp_1b,1,1,65,138,2,m,4,1131,473,fa,6,female,23
EA_exp_1b,1,1,66,86,1,z,4,1924,451,miss,1,female,23
EA_exp_1b,1,1,67,154,2,z,3,1076,401,cr,2,female,23
EA_exp_1b,1,1,68,115,2,m,3,1024,370,fa,5,female,23
EA_exp_1b,1,1,69,33,1,m,4,1219,461,hit,6,female,23
EA_exp_1b,1,1,70,64,1,m,4,762,296,hit,6,female,23
EA_exp_1b,1,1,71,195,2,m,3,1135,393,fa,5,female,23
EA_exp_1b,1,1,72,159,2,z,3,1064,392,cr,2,female,23
EA_exp_1b,1,1,73,184,2,z,3,1454,379,cr,2,female,23
EA_exp_1b,1,1,74,84,1,m,4,923,338,hit,6,female,23
EA_exp_1b,1,1,75,149,2,z,3,1909,355,cr,2,female,23
EA_exp_1b,1,1,76,88,1,m,4,870,333,hit,6,female,23
EA_exp_1b,1,1,77,21,1,m,2,754,1100,hit,4,female,23
EA_exp_1b,1,1,78,112,2,z,3,1295,455,cr,2,female,23
EA_exp_1b,1,1,79,95,1,z,3,1112,371,miss,2,female,23
EA_exp_1b,1,1,80,107,2,z,4,1173,400,cr,1,female,23
EA_exp_1b,1,1,81,51,1,z,2,1218,346,miss,3,female,23
EA_exp_1b,1,1,82,60,1,m,2,717,283,hit,4,female,23
EA_exp_1b,1,1,83,102,2,m,3,1554,380,fa,5,female,23
EA_exp_1b,1,1,84,77,1,z,3,1117,524,miss,2,female,23
EA_exp_1b,1,1,85,108,2,z,4,1464,440,cr,1,female,23
EA_exp_1b,1,1,86,55,1,m,4,886,350,hit,6,female,23
EA_exp_1b,1,1,87,146,2,m,4,722,268,fa,6,female,23
EA_exp_1b,1,1,88,174,2,m,3,708,562,fa,5,female,23
EA_exp_1b,1,1,89,179,2,z,2,1355,512,cr,3,female,23
EA_exp_1b,1,1,90,36,1,m,3,2381,359,hit,5,female,23
EA_exp_1b,1,1,91,62,1,z,4,922,383,miss,1,female,23
EA_exp_1b,1,1,92,9,1,z,3,897,407,miss,2,female,23
EA_exp_1b,1,1,93,140,2,m,3,856,351,fa,5,female,23
EA_exp_1b,1,1,94,127,2,m,4,837,410,fa,6,female,23
EA_exp_1b,1,1,95,10,1,m,4,761,262,hit,6,female,23
EA_exp_1b,1,1,96,188,2,m,3,988,384,fa,5,female,23
EA_exp_1b,1,1,97,29,1,m,4,832,330,hit,6,female,23
EA_exp_1b,1,1,98,177,2,z,3,1550,410,cr,2,female,23
EA_exp_1b,1,1,99,198,2,z,3,1066,346,cr,2,female,23
EA_exp_1b,1,1,100,142,2,z,2,1165,376,cr,3,female,23
EA_exp_1b,1,1,101,169,2,z,4,1258,498,cr,1,female,23
EA_exp_1b,1,1,102,12,1,z,3,992,480,miss,2,female,23
EA_exp_1b,1,1,103,181,2,z,2,1009,384,cr,3,female,23
EA_exp_1b,1,1,104,78,1,m,3,739,334,hit,5,female,23
EA_exp_1b,1,1,105,194,2,m,4,948,582,fa,6,female,23
EA_exp_1b,1,1,106,63,1,z,3,2048,535,miss,2,female,23
EA_exp_1b,1,1,107,163,2,m,3,1604,318,fa,5,female,23
EA_exp_1b,1,1,108,42,1,m,4,833,346,hit,6,female,23
EA_exp_1b,1,1,109,73,1,m,2,780,503,hit,4,female,23
EA_exp_1b,1,1,110,151,2,m,2,886,412,fa,4,female,23
EA_exp_1b,1,1,111,1,1,z,3,1195,373,miss,2,female,23
EA_exp_1b,1,1,112,13,1,m,4,904,397,hit,6,female,23
EA_exp_1b,1,1,113,180,2,m,4,912,404,fa,6,female,23
EA_exp_1b,1,1,114,53,1,z,3,1124,433,miss,2,female,23
EA_exp_1b,1,1,115,199,2,m,3,963,565,fa,5,female,23
EA_exp_1b,1,1,116,20,1,z,2,1600,313,miss,3,female,23
EA_exp_1b,1,1,117,75,1,m,3,1836,462,hit,5,female,23
EA_exp_1b,1,1,118,185,2,m,2,2092,419,fa,4,female,23
EA_exp_1b,1,1,119,182,2,z,3,964,422,cr,2,female,23
EA_exp_1b,1,1,120,172,2,z,2,1174,513,cr,3,female,23
EA_exp_1b,1,1,121,117,2,m,1,974,401,fa,4,female,23
EA_exp_1b,1,1,122,3,1,m,2,1377,531,hit,4,female,23
EA_exp_1b,1,1,123,25,1,z,3,2735,1084,miss,2,female,23
EA_exp_1b,1,1,124,155,2,z,4,1330,870,cr,1,female,23
EA_exp_1b,1,1,125,190,2,m,1,1830,452,fa,4,female,23
EA_exp_1b,1,1,126,65,1,z,3,1184,415,miss,2,female,23
EA_exp_1b,1,1,127,192,2,z,3,1488,621,cr,2,female,23
EA_exp_1b,1,1,128,137,2,z,4,1752,346,cr,1,female,23
EA_exp_1b,1,1,129,39,1,z,2,2268,460,miss,3,female,23
EA_exp_1b,1,1,130,6,1,m,4,1227,355,hit,6,female,23
EA_exp_1b,1,1,131,125,2,m,2,1047,374,fa,4,female,23
EA_exp_1b,1,1,132,200,2,z,3,858,383,cr,2,female,23
EA_exp_1b,1,1,133,106,2,z,2,1507,399,cr,3,female,23
EA_exp_1b,1,1,134,93,1,z,4,1347,420,miss,1,female,23
EA_exp_1b,1,1,135,110,2,m,4,710,322,fa,6,female,23
EA_exp_1b,1,1,136,145,2,m,4,583,248,fa,6,female,23
EA_exp_1b,1,1,137,49,1,m,2,1135,316,hit,4,female,23
EA_exp_1b,1,1,138,17,1,z,3,754,444,miss,2,female,23
EA_exp_1b,1,1,139,131,2,z,2,1083,362,cr,3,female,23
EA_exp_1b,1,1,140,70,1,z,3,1101,363,miss,2,female,23
EA_exp_1b,1,1,141,128,2,m,2,705,396,fa,4,female,23
EA_exp_1b,1,1,142,92,1,z,3,1453,349,miss,2,female,23
EA_exp_1b,1,1,143,71,1,m,1,707,366,hit,4,female,23
EA_exp_1b,1,1,144,126,2,z,3,866,408,cr,2,female,23
EA_exp_1b,1,1,145,144,2,m,4,600,251,fa,6,female,23
EA_exp_1b,1,1,146,171,2,m,1,1088,255,fa,4,female,23
EA_exp_1b,1,1,147,189,2,m,3,774,384,fa,5,female,23
EA_exp_1b,1,1,148,52,1,m,4,1123,287,hit,6,female,23
EA_exp_1b,1,1,149,56,1,m,2,934,313,hit,4,female,23
EA_exp_1b,1,1,150,119,2,z,4,1040,494,cr,1,female,23
EA_exp_1b,1,1,151,134,2,z,2,1116,425,cr,3,female,23
EA_exp_1b,1,1,152,18,1,m,4,667,425,hit,6,female,23
EA_exp_1b,1,1,153,166,2,m,4,987,251,fa,6,female,23
EA_exp_1b,1,1,154,160,2,m,2,1011,403,fa,4,female,23
EA_exp_1b,1,1,155,15,1,z,3,547,328,miss,2,female,23
EA_exp_1b,1,1,156,196,2,m,2,955,303,fa,4,female,23
EA_exp_1b,1,1,157,37,1,m,4,1317,665,hit,6,female,23
EA_exp_1b,1,1,158,91,1,z,3,1215,441,miss,2,female,23
EA_exp_1b,1,1,159,59,1,m,4,761,292,hit,6,female,23
EA_exp_1b,1,1,160,34,1,z,2,1081,584,miss,3,female,23
EA_exp_1b,1,1,161,124,2,m,1,1247,297,fa,4,female,23
EA_exp_1b,1,1,162,67,1,m,2,1135,298,hit,4,female,23
EA_exp_1b,1,1,163,158,2,z,3,1362,548,cr,2,female,23
EA_exp_1b,1,1,164,175,2,m,4,1554,267,fa,6,female,23
EA_exp_1b,1,1,165,148,2,z,3,1025,402,cr,2,female,23
EA_exp_1b,1,1,166,14,1,m,4,900,264,hit,6,female,23
EA_exp_1b,1,1,167,58,1,m,2,1025,288,hit,4,female,23
EA_exp_1b,1,1,168,129,2,m,4,1316,282,fa,6,female,23
EA_exp_1b,1,1,169,193,2,z,3,1570,332,cr,2,female,23
EA_exp_1b,1,1,170,79,1,m,2,1216,185,hit,4,female,23
EA_exp_1b,1,1,171,164,2,m,4,867,586,fa,6,female,23
EA_exp_1b,1,1,172,57,1,m,2,1781,486,hit,4,female,23
EA_exp_1b,1,1,173,114,2,z,3,1124,416,cr,2,female,23
EA_exp_1b,1,1,174,103,2,m,4,579,275,fa,6,female,23
EA_exp_1b,1,1,175,111,2,m,3,1049,281,fa,5,female,23
EA_exp_1b,1,1,176,168,2,z,2,1041,479,cr,3,female,23
EA_exp_1b,1,1,177,161,2,z,3,637,462,cr,2,female,23
EA_exp_1b,1,1,178,68,1,m,4,718,682,hit,6,female,23
EA_exp_1b,1,1,179,72,1,m,2,1647,408,hit,4,female,23
EA_exp_1b,1,1,180,130,2,m,2,1144,197,fa,4,female,23
EA_exp_1b,1,1,181,2,1,m,4,1392,368,hit,6,female,23
EA_exp_1b,1,1,182,46,1,m,2,2259,241,hit,4,female,23
EA_exp_1b,1,1,183,197,2,z,3,1674,543,cr,2,female,23
EA_exp_1b,1,1,184,11,1,z,4,1324,511,miss,1,female,23
EA_exp_1b,1,1,185,31,1,m,2,1404,558,hit,4,female,23
EA_exp_1b,1,1,186,50,1,m,3,1771,348,hit,5,female,23
EA_exp_1b,1,1,187,97,1,z,4,1104,493,miss,1,female,23
EA_exp_1b,1,1,188,173,2,m,3,987,333,fa,5,female,23
EA_exp_1b,1,1,189,45,1,m,2,2034,313,hit,4,female,23
EA_exp_1b,1,1,190,120,2,m,3,1201,840,fa,5,female,23
EA_exp_1b,1,1,191,187,2,z,4,1128,468,cr,1,female,23
EA_exp_1b,1,1,192,7,1,z,3,1316,391,miss,2,female,23
EA_exp_1b,1,1,193,96,1,m,4,796,403,hit,6,female,23
EA_exp_1b,1,1,194,38,1,z,3,1237,412,miss,2,female,23
EA_exp_1b,1,1,195,116,2,z,2,1261,356,cr,3,female,23
EA_exp_1b,1,1,196,141,2,z,4,1187,417,cr,1,female,23
EA_exp_1b,1,1,197,113,2,z,4,1441,448,cr,1,female,23
EA_exp_1b,1,1,198,41,1,z,3,1216,585,miss,2,female,23
EA_exp_1b,1,1,199,4,1,m,4,787,429,hit,6,female,23
EA_exp_1b,1,1,200,104,2,m,2,1197,359,fa,4,female,23
EA_exp_1b,2,2,1,186,1,m,2,5427,4612,hit,4,male,19
EA_exp_1b,2,2,2,48,2,z,3,3817,2943,cr,2,male,19
EA_exp_1b,2,2,3,102,1,m,4,12376,1700,hit,6,male,19
EA_exp_1b,2,2,4,134,1,m,4,3728,1526,hit,6,male,19
EA_exp_1b,2,2,5,180,1,m,2,4571,3901,hit,4,male,19
EA_exp_1b,2,2,6,60,2,m,2,4549,1174,fa,4,male,19
EA_exp_1b,2,2,7,64,2,z,3,2854,3263,cr,2,male,19
EA_exp_1b,2,2,8,154,1,z,2,5184,4233,miss,3,male,19
EA_exp_1b,2,2,9,17,2,z,4,3731,3398,cr,1,male,19
EA_exp_1b,2,2,10,24,2,m,3,3435,1519,fa,5,male,19
EA_exp_1b,2,2,11,107,1,m,4,5895,1473,hit,6,male,19
EA_exp_1b,2,2,12,105,1,m,2,5961,1299,hit,4,male,19
EA_exp_1b,2,2,13,5,2,m,2,4831,1209,fa,4,male,19
EA_exp_1b,2,2,14,90,2,z,3,3176,1620,cr,2,male,19
EA_exp_1b,2,2,15,163,1,m,2,5540,944,hit,4,male,19
EA_exp_1b,2,2,16,199,1,m,1,12508,2720,hit,4,male,19
EA_exp_1b,2,2,17,14,2,z,3,8838,3213,cr,2,male,19
EA_exp_1b,2,2,18,171,1,m,4,2719,1339,hit,6,male,19
EA_exp_1b,2,2,19,2,2,z,2,3875,2645,cr,3,male,19
EA_exp_1b,2,2,20,121,1,m,3,4109,1090,hit,5,male,19
EA_exp_1b,2,2,21,87,2,z,2,6327,1300,cr,3,male,19
EA_exp_1b,2,2,22,16,2,z,3,1969,2572,cr,2,male,19
EA_exp_1b,2,2,23,193,1,m,2,3623,1039,hit,4,male,19
EA_exp_1b,2,2,24,181,1,m,3,3288,973,hit,5,male,19
EA_exp_1b,2,2,25,136,1,m,4,1653,1039,hit,6,male,19
EA_exp_1b,2,2,26,109,1,m,4,1847,758,hit,6,male,19
EA_exp_1b,2,2,27,88,2,m,1,6809,962,fa,4,male,19
EA_exp_1b,2,2,28,196,1,m,4,1631,725,hit,6,male,19
EA_exp_1b,2,2,29,98,2,z,2,3849,665,cr,3,male,19
EA_exp_1b,2,2,30,93,2,z,2,5535,1213,cr,3,male,19
EA_exp_1b,2,2,31,58,2,z,3,1948,538,cr,2,male,19
EA_exp_1b,2,2,32,55,2,z,3,7926,530,cr,2,male,19
EA_exp_1b,2,2,33,37,2,z,3,2189,432,cr,2,male,19
EA_exp_1b,2,2,34,30,2,z,3,7136,428,cr,2,male,19
EA_exp_1b,2,2,35,182,1,m,3,2699,2266,hit,5,male,19
EA_exp_1b,2,2,36,71,2,z,2,2114,598,cr,3,male,19
EA_exp_1b,2,2,37,54,2,m,1,6994,1025,fa,4,male,19
EA_exp_1b,2,2,38,49,2,z,2,2186,668,cr,3,male,19
EA_exp_1b,2,2,39,57,2,m,2,16417,1084,fa,4,male,19
EA_exp_1b,2,2,40,33,2,m,2,5793,1667,fa,4,male,19
EA_exp_1b,2,2,41,40,2,z,2,2418,1034,cr,3,male,19
EA_exp_1b,2,2,42,35,2,m,4,8049,986,fa,6,male,19
EA_exp_1b,2,2,43,73,2,z,2,4289,1585,cr,3,male,19
EA_exp_1b,2,2,44,116,1,m,3,3778,661,hit,5,male,19
EA_exp_1b,2,2,45,128,1,m,3,5099,633,hit,5,male,19
EA_exp_1b,2,2,46,130,1,m,4,3486,607,hit,6,male,19
EA_exp_1b,2,2,47,4,2,z,3,2074,782,cr,2,male,19
EA_exp_1b,2,2,48,78,2,z,4,1662,984,cr,1,male,19
EA_exp_1b,2,2,49,111,1,m,4,1553,668,hit,6,male,19
EA_exp_1b,2,2,50,145,1,m,4,1521,608,hit,6,male,19
EA_exp_1b,2,2,51,141,1,m,4,1527,676,hit,6,male,19
EA_exp_1b,2,2,52,108,1,m,3,2490,849,hit,5,male,19
EA_exp_1b,2,2,53,36,2,z,2,4304,2671,cr,3,male,19
EA_exp_1b,2,2,54,123,1,m,4,2563,664,hit,6,male,19
EA_exp_1b,2,2,55,95,2,z,3,1982,920,cr,2,male,19
EA_exp_1b,2,2,56,32,2,z,3,1703,1018,cr,2,male,19
EA_exp_1b,2,2,57,21,2,z,2,2387,733,cr,3,male,19
EA_exp_1b,2,2,58,10,2,z,3,1905,1262,cr,2,male,19
EA_exp_1b,2,2,59,94,2,z,2,1692,1187,cr,3,male,19
EA_exp_1b,2,2,60,11,2,z,2,3941,753,cr,3,male,19
EA_exp_1b,2,2,61,74,2,z,1,2965,534,cr,3,male,19
EA_exp_1b,2,2,62,68,2,z,2,2194,965,cr,3,male,19
EA_exp_1b,2,2,63,185,1,z,3,4430,455,miss,2,male,19
EA_exp_1b,2,2,64,195,1,z,1,4647,550,miss,3,male,19
EA_exp_1b,2,2,65,132,1,m,2,3202,1258,hit,4,male,19
EA_exp_1b,2,2,66,101,1,m,4,1883,888,hit,6,male,19
EA_exp_1b,2,2,67,96,2,m,1,9923,786,fa,4,male,19
EA_exp_1b,2,2,68,151,1,m,4,8084,602,hit,6,male,19
EA_exp_1b,2,2,69,172,1,m,3,1970,1326,hit,5,male,19
EA_exp_1b,2,2,70,52,2,z,3,1642,434,cr,2,male,19
EA_exp_1b,2,2,71,183,1,m,4,1537,607,hit,6,male,19
EA_exp_1b,2,2,72,13,2,z,3,1558,594,cr,2,male,19
EA_exp_1b,2,2,73,200,1,m,4,2204,573,hit,6,male,19
EA_exp_1b,2,2,74,50,2,z,3,1272,415,cr,2,male,19
EA_exp_1b,2,2,75,114,1,z,3,1153,379,miss,2,male,19
EA_exp_1b,2,2,76,155,1,m,4,1692,931,hit,6,male,19
EA_exp_1b,2,2,77,81,2,m,1,2670,782,fa,4,male,19
EA_exp_1b,2,2,78,146,1,m,2,2210,898,hit,4,male,19
EA_exp_1b,2,2,79,112,1,m,4,3424,1136,hit,6,male,19
EA_exp_1b,2,2,80,144,1,m,4,3012,516,hit,6,male,19
EA_exp_1b,2,2,81,188,1,m,4,2177,803,hit,6,male,19
EA_exp_1b,2,2,82,115,1,m,1,17539,656,hit,4,male,19
EA_exp_1b,2,2,83,120,1,m,1,5255,639,hit,4,male,19
EA_exp_1b,2,2,84,148,1,m,2,1766,665,hit,4,male,19
EA_exp_1b,2,2,85,198,1,m,2,1711,933,hit,4,male,19
EA_exp_1b,2,2,86,56,2,z,2,1681,1703,cr,3,male,19
EA_exp_1b,2,2,87,135,1,m,4,1619,541,hit,6,male,19
EA_exp_1b,2,2,88,3,2,z,2,3098,374,cr,3,male,19
EA_exp_1b,2,2,89,161,1,m,4,3993,595,hit,6,male,19
EA_exp_1b,2,2,90,26,2,z,1,3002,894,cr,3,male,19
EA_exp_1b,2,2,91,168,1,m,4,1580,598,hit,6,male,19
EA_exp_1b,2,2,92,18,2,m,1,3968,651,fa,4,male,19
EA_exp_1b,2,2,93,153,1,m,4,4672,496,hit,6,male,19
EA_exp_1b,2,2,94,61,2,z,1,5612,503,cr,3,male,19
EA_exp_1b,2,2,95,77,2,m,1,6116,617,fa,4,male,19
EA_exp_1b,2,2,96,99,2,z,1,2898,2103,cr,3,male,19
EA_exp_1b,2,2,97,149,1,m,1,2789,894,hit,4,male,19
EA_exp_1b,2,2,98,15,2,m,1,8204,1086,fa,4,male,19
EA_exp_1b,2,2,99,27,2,m,2,2289,705,fa,4,male,19
EA_exp_1b,2,2,100,6,2,z,3,1493,468,cr,2,male,19
EA_exp_1b,2,2,101,89,2,z,3,1441,402,cr,2,male,19
EA_exp_1b,2,2,102,159,1,m,4,1617,875,hit,6,male,19
EA_exp_1b,2,2,103,191,1,m,1,14329,694,hit,4,male,19
EA_exp_1b,2,2,104,25,2,z,1,9596,1254,cr,3,male,19
EA_exp_1b,2,2,105,28,2,z,3,1314,377,cr,2,male,19
EA_exp_1b,2,2,106,47,2,z,2,1516,473,cr,3,male,19
EA_exp_1b,2,2,107,133,1,m,3,2519,604,hit,5,male,19
EA_exp_1b,2,2,108,187,1,m,4,1284,972,hit,6,male,19
EA_exp_1b,2,2,109,190,1,z,2,2405,463,miss,3,male,19
EA_exp_1b,2,2,110,79,2,z,2,2093,804,cr,3,male,19
EA_exp_1b,2,2,111,119,1,m,3,1571,544,hit,5,male,19
EA_exp_1b,2,2,112,66,2,z,3,1483,1082,cr,2,male,19
EA_exp_1b,2,2,113,82,2,m,1,4832,552,fa,4,male,19
EA_exp_1b,2,2,114,104,1,m,4,1204,525,hit,6,male,19
EA_exp_1b,2,2,115,97,2,z,1,1835,4170,cr,3,male,19
EA_exp_1b,2,2,116,45,2,z,2,4853,1083,cr,3,male,19
EA_exp_1b,2,2,117,1,2,m,1,10130,710,fa,4,male,19
EA_exp_1b,2,2,118,19,2,z,3,13229,1075,cr,2,male,19
EA_exp_1b,2,2,119,167,1,z,3,6041,641,miss,2,male,19
EA_exp_1b,2,2,120,22,2,m,2,5927,837,fa,4,male,19
EA_exp_1b,2,2,121,51,2,z,2,2194,647,cr,3,male,19
EA_exp_1b,2,2,122,72,2,z,3,1421,334,cr,2,male,19
EA_exp_1b,2,2,123,39,2,z,2,6500,520,cr,3,male,19
EA_exp_1b,2,2,124,69,2,z,3,1427,309,cr,2,male,19
EA_exp_1b,2,2,125,44,2,z,3,1336,318,cr,2,male,19
EA_exp_1b,2,2,126,53,2,z,3,1621,315,cr,2,male,19
EA_exp_1b,2,2,127,43,2,z,4,1263,392,cr,1,male,19
EA_exp_1b,2,2,128,152,1,z,3,2202,459,miss,2,male,19
EA_exp_1b,2,2,129,23,2,z,3,1209,323,cr,2,male,19
EA_exp_1b,2,2,130,164,1,m,4,1543,547,hit,6,male,19
EA_exp_1b,2,2,131,197,1,z,2,2463,614,miss,3,male,19
EA_exp_1b,2,2,132,158,1,m,4,1345,483,hit,6,male,19
EA_exp_1b,2,2,133,8,2,z,2,1374,4899,cr,3,male,19
EA_exp_1b,2,2,134,31,2,m,2,3775,611,fa,4,male,19
EA_exp_1b,2,2,135,175,1,m,1,2749,567,hit,4,male,19
EA_exp_1b,2,2,136,142,1,m,4,1410,450,hit,6,male,19
EA_exp_1b,2,2,137,12,2,z,3,1456,384,cr,2,male,19
EA_exp_1b,2,2,138,106,1,z,2,1938,320,miss,3,male,19
EA_exp_1b,2,2,139,184,1,m,1,1603,845,hit,4,male,19
EA_exp_1b,2,2,140,127,1,m,2,7484,1531,hit,4,male,19
EA_exp_1b,2,2,141,122,1,m,4,1280,565,hit,6,male,19
EA_exp_1b,2,2,142,170,1,z,2,1615,1146,miss,3,male,19
EA_exp_1b,2,2,143,20,2,z,3,1368,527,cr,2,male,19
EA_exp_1b,2,2,144,91,2,z,3,1295,530,cr,2,male,19
EA_exp_1b,2,2,145,126,1,z,2,8620,430,miss,3,male,19
EA_exp_1b,2,2,146,179,1,m,3,3422,1408,hit,5,male,19
EA_exp_1b,2,2,147,189,1,m,2,3127,645,hit,4,male,19
EA_exp_1b,2,2,148,117,1,z,2,2412,549,miss,3,male,19
EA_exp_1b,2,2,149,76,2,m,1,5232,505,fa,4,male,19
EA_exp_1b,2,2,150,173,1,m,4,904,476,hit,6,male,19
EA_exp_1b,2,2,151,124,1,m,4,1197,356,hit,6,male,19
EA_exp_1b,2,2,152,100,2,m,3,2293,548,fa,5,male,19
EA_exp_1b,2,2,153,34,2,z,2,1631,1689,cr,3,male,19
EA_exp_1b,2,2,154,140,1,m,3,1639,463,hit,5,male,19
EA_exp_1b,2,2,155,29,2,m,4,924,418,fa,6,male,19
EA_exp_1b,2,2,156,143,1,z,2,1683,1482,miss,3,male,19
EA_exp_1b,2,2,157,157,1,m,4,1679,357,hit,6,male,19
EA_exp_1b,2,2,158,63,2,z,2,6647,424,cr,3,male,19
EA_exp_1b,2,2,159,166,1,z,2,2343,324,miss,3,male,19
EA_exp_1b,2,2,160,176,1,m,4,1224,417,hit,6,male,19
EA_exp_1b,2,2,161,178,1,z,2,1570,524,miss,3,male,19
EA_exp_1b,2,2,162,139,1,m,4,1046,440,hit,6,male,19
EA_exp_1b,2,2,163,174,1,m,4,1416,457,hit,6,male,19
EA_exp_1b,2,2,164,129,1,m,4,1002,393,hit,6,male,19
EA_exp_1b,2,2,165,162,1,m,4,1051,395,hit,6,male,19
EA_exp_1b,2,2,166,118,1,m,2,1980,1047,hit,4,male,19
EA_exp_1b,2,2,167,194,1,m,3,2079,485,hit,5,male,19
EA_exp_1b,2,2,168,67,2,z,2,2706,592,cr,3,male,19
EA_exp_1b,2,2,169,192,1,m,3,1466,616,hit,5,male,19
EA_exp_1b,2,2,170,125,1,m,1,8948,645,hit,4,male,19
EA_exp_1b,2,2,171,75,2,m,1,2875,659,fa,4,male,19
EA_exp_1b,2,2,172,84,2,m,1,11000,491,fa,4,male,19
EA_exp_1b,2,2,173,156,1,m,4,1595,563,hit,6,male,19
EA_exp_1b,2,2,174,7,2,m,1,4428,582,fa,4,male,19
EA_exp_1b,2,2,175,70,2,z,3,1648,552,cr,2,male,19
EA_exp_1b,2,2,176,86,2,z,2,1538,415,cr,3,male,19
EA_exp_1b,2,2,177,165,1,m,1,4578,546,hit,4,male,19
EA_exp_1b,2,2,178,169,1,z,2,2126,610,miss,3,male,19
EA_exp_1b,2,2,179,92,2,z,3,1563,390,cr,2,male,19
EA_exp_1b,2,2,180,147,1,z,1,2073,527,miss,3,male,19
EA_exp_1b,2,2,181,110,1,z,3,1627,387,miss,2,male,19
EA_exp_1b,2,2,182,38,2,z,2,3094,307,cr,3,male,19
EA_exp_1b,2,2,183,41,2,z,2,2889,366,cr,3,male,19
EA_exp_1b,2,2,184,113,1,m,4,3296,518,hit,6,male,19
EA_exp_1b,2,2,185,138,1,m,4,1012,403,hit,6,male,19
EA_exp_1b,2,2,186,46,2,m,4,1283,587,fa,6,male,19
EA_exp_1b,2,2,187,59,2,z,3,2851,604,cr,2,male,19
EA_exp_1b,2,2,188,9,2,z,2,1463,436,cr,3,male,19
EA_exp_1b,2,2,189,65,2,z,2,2004,334,cr,3,male,19
EA_exp_1b,2,2,190,137,1,m,3,1634,617,hit,5,male,19
EA_exp_1b,2,2,191,131,1,m,4,881,488,hit,6,male,19
EA_exp_1b,2,2,192,62,2,z,2,1348,538,cr,3,male,19
EA_exp_1b,2,2,193,150,1,m,3,1717,603,hit,5,male,19
EA_exp_1b,2,2,194,160,1,m,4,1026,499,hit,6,male,19
EA_exp_1b,2,2,195,85,2,z,2,1647,521,cr,3,male,19
EA_exp_1b,2,2,196,83,2,z,2,8485,236,cr,3,male,19
EA_exp_1b,2,2,197,80,2,m,4,1138,399,fa,6,male,19
EA_exp_1b,2,2,198,42,2,z,2,1680,357,cr,3,male,19
EA_exp_1b,2,2,199,103,1,m,2,19127,614,hit,4,male,19
EA_exp_1b,2,2,200,177,1,m,4,2061,902,hit,6,male,19
EA_exp_1b,3,2,1,142,1,m,4,5483,17812,hit,6,female,19
EA_exp_1b,3,2,2,22,2,z,3,4858,8948,cr,2,female,19
EA_exp_1b,3,2,3,132,1,m,4,5885,2158,hit,6,female,19
EA_exp_1b,3,2,4,180,1,m,4,5238,3360,hit,6,female,19
EA_exp_1b,3,2,5,59,2,z,2,3945,4759,cr,3,female,19
EA_exp_1b,3,2,6,155,1,m,4,3273,1265,hit,6,female,19
EA_exp_1b,3,2,7,13,2,z,2,3549,1771,cr,3,female,19
EA_exp_1b,3,2,8,100,2,z,3,2727,2130,cr,2,female,19
EA_exp_1b,3,2,9,63,2,z,1,5243,2501,cr,3,female,19
EA_exp_1b,3,2,10,146,1,m,3,7619,2076,hit,5,female,19
EA_exp_1b,3,2,11,157,1,m,4,4201,619,hit,6,female,19
EA_exp_1b,3,2,12,45,2,z,3,3377,2070,cr,2,female,19
EA_exp_1b,3,2,13,97,2,z,3,2691,2947,cr,2,female,19
EA_exp_1b,3,2,14,139,1,m,1,9820,2064,hit,4,female,19
EA_exp_1b,3,2,15,51,2,z,2,6460,1334,cr,3,female,19
EA_exp_1b,3,2,16,128,1,m,2,5471,2191,hit,4,female,19
EA_exp_1b,3,2,17,102,1,m,4,1991,1090,hit,6,female,19
EA_exp_1b,3,2,18,34,2,z,1,5367,2379,cr,3,female,19
EA_exp_1b,3,2,19,61,2,z,2,2094,1075,cr,3,female,19
EA_exp_1b,3,2,20,49,2,z,4,2362,2532,cr,1,female,19
EA_exp_1b,3,2,21,18,2,z,2,5021,1633,cr,3,female,19
EA_exp_1b,3,2,22,196,1,z,1,5360,739,miss,3,female,19
EA_exp_1b,3,2,23,186,1,m,4,2407,4544,hit,6,female,19
EA_exp_1b,3,2,24,177,1,m,4,1675,1122,hit,6,female,19
EA_exp_1b,3,2,25,21,2,z,2,6743,2802,cr,3,female,19
EA_exp_1b,3,2,26,114,1,m,3,4096,1337,hit,5,female,19
EA_exp_1b,3,2,27,82,2,z,2,1637,1453,cr,3,female,19
EA_exp_1b,3,2,28,36,2,z,1,7092,770,cr,3,female,19
EA_exp_1b,3,2,29,192,1,m,4,4516,1225,hit,6,female,19
EA_exp_1b,3,2,30,78,2,z,2,3466,1113,cr,3,female,19
EA_exp_1b,3,2,31,39,2,z,3,6365,2329,cr,2,female,19
EA_exp_1b,3,2,32,197,1,m,2,6173,2175,hit,4,female,19
EA_exp_1b,3,2,33,8,2,z,1,2457,1089,cr,3,female,19
EA_exp_1b,3,2,34,137,1,m,3,3286,1965,hit,5,female,19
EA_exp_1b,3,2,35,84,2,m,2,4335,540,fa,4,female,19
EA_exp_1b,3,2,36,6,2,z,1,2310,949,cr,3,female,19
EA_exp_1b,3,2,37,181,1,m,3,4736,2845,hit,5,female,19
EA_exp_1b,3,2,38,179,1,z,1,1452,2092,miss,3,female,19
EA_exp_1b,3,2,39,50,2,z,3,3481,2744,cr,2,female,19
EA_exp_1b,3,2,40,199,1,m,4,2027,1924,hit,6,female,19
EA_exp_1b,3,2,41,5,2,z,2,1976,1475,cr,3,female,19
EA_exp_1b,3,2,42,175,1,z,2,2456,1728,miss,3,female,19
EA_exp_1b,3,2,43,141,1,m,4,1214,1366,hit,6,female,19
EA_exp_1b,3,2,44,46,2,m,1,6049,504,fa,4,female,19
EA_exp_1b,3,2,45,121,1,m,4,2756,783,hit,6,female,19
EA_exp_1b,3,2,46,143,1,m,4,2561,1189,hit,6,female,19
EA_exp_1b,3,2,47,58,2,z,3,2406,1657,cr,2,female,19
EA_exp_1b,3,2,48,172,1,m,4,2158,865,hit,6,female,19
EA_exp_1b,3,2,49,125,1,m,4,2099,454,hit,6,female,19
EA_exp_1b,3,2,50,37,2,m,1,914,5130,fa,4,female,19
EA_exp_1b,3,2,51,87,2,z,3,1484,1644,cr,2,female,19
EA_exp_1b,3,2,52,145,1,m,4,1963,678,hit,6,female,19
EA_exp_1b,3,2,53,124,1,m,4,1118,475,hit,6,female,19
EA_exp_1b,3,2,54,17,2,z,3,2711,1636,cr,2,female,19
EA_exp_1b,3,2,55,95,2,m,2,5494,1203,fa,4,female,19
EA_exp_1b,3,2,56,9,2,z,2,3172,1167,cr,3,female,19
EA_exp_1b,3,2,57,156,1,m,4,1585,1612,hit,6,female,19
EA_exp_1b,3,2,58,91,2,z,3,2139,1616,cr,2,female,19
EA_exp_1b,3,2,59,98,2,z,2,2175,1683,cr,3,female,19
EA_exp_1b,3,2,60,147,1,m,2,4240,673,hit,4,female,19
EA_exp_1b,3,2,61,14,2,z,3,1718,1852,cr,2,female,19
EA_exp_1b,3,2,62,198,1,m,4,2419,1820,hit,6,female,19
EA_exp_1b,3,2,63,41,2,z,3,2022,3869,cr,2,female,19
EA_exp_1b,3,2,64,153,1,m,4,1426,1684,hit,6,female,19
EA_exp_1b,3,2,65,134,1,m,4,1170,732,hit,6,female,19
EA_exp_1b,3,2,66,38,2,z,3,1760,1204,cr,2,female,19
EA_exp_1b,3,2,67,109,1,m,4,1282,539,hit,6,female,19
EA_exp_1b,3,2,68,193,1,m,4,4151,1003,hit,6,female,19
EA_exp_1b,3,2,69,52,2,z,2,1266,2283,cr,3,female,19
EA_exp_1b,3,2,70,11,2,z,2,2189,1410,cr,3,female,19
EA_exp_1b,3,2,71,40,2,z,2,1338,719,cr,3,female,19
EA_exp_1b,3,2,72,33,2,z,1,2657,1411,cr,3,female,19
EA_exp_1b,3,2,73,28,2,z,1,3434,1468,cr,3,female,19
EA_exp_1b,3,2,74,185,1,m,2,4737,2175,hit,4,female,19
EA_exp_1b,3,2,75,81,2,z,3,1783,1819,cr,2,female,19
EA_exp_1b,3,2,76,101,1,m,4,2466,986,hit,6,female,19
EA_exp_1b,3,2,77,96,2,z,4,7267,1803,cr,1,female,19
EA_exp_1b,3,2,78,67,2,z,1,2515,1417,cr,3,female,19
EA_exp_1b,3,2,79,152,1,z,2,2259,1104,miss,3,female,19
EA_exp_1b,3,2,80,163,1,m,4,1798,1381,hit,6,female,19
EA_exp_1b,3,2,81,183,1,m,4,3424,641,hit,6,female,19
EA_exp_1b,3,2,82,48,2,z,2,4502,1663,cr,3,female,19
EA_exp_1b,3,2,83,23,2,z,2,1805,2495,cr,3,female,19
EA_exp_1b,3,2,84,113,1,m,3,6523,3058,hit,5,female,19
EA_exp_1b,3,2,85,72,2,z,3,2025,2833,cr,2,female,19
EA_exp_1b,3,2,86,15,2,z,4,1792,1027,cr,1,female,19
EA_exp_1b,3,2,87,138,1,m,4,1291,945,hit,6,female,19
EA_exp_1b,3,2,88,54,2,z,2,2459,1812,cr,3,female,19
EA_exp_1b,3,2,89,44,2,z,1,1771,496,cr,3,female,19
EA_exp_1b,3,2,90,123,1,m,4,1099,763,hit,6,female,19
EA_exp_1b,3,2,91,42,2,z,2,2750,600,cr,3,female,19
EA_exp_1b,3,2,92,80,2,z,3,1873,2672,cr,2,female,19
EA_exp_1b,3,2,93,165,1,m,4,2230,791,hit,6,female,19
EA_exp_1b,3,2,94,1,2,m,4,3769,1980,fa,6,female,19
EA_exp_1b,3,2,95,89,2,z,3,2540,1330,cr,2,female,19
EA_exp_1b,3,2,96,106,1,m,1,2381,1785,hit,4,female,19
EA_exp_1b,3,2,97,187,1,m,4,1809,899,hit,6,female,19
EA_exp_1b,3,2,98,65,2,z,4,2721,1518,cr,1,female,19
EA_exp_1b,3,2,99,168,1,m,4,2083,1194,hit,6,female,19
EA_exp_1b,3,2,100,56,2,z,1,3643,1282,cr,3,female,19
EA_exp_1b,3,2,101,151,1,m,4,1618,1578,hit,6,female,19
EA_exp_1b,3,2,102,167,1,m,4,1178,758,hit,6,female,19
EA_exp_1b,3,2,103,122,1,m,4,1288,671,hit,6,female,19
EA_exp_1b,3,2,104,83,2,z,3,1879,4196,cr,2,female,19
EA_exp_1b,3,2,105,154,1,m,3,1646,998,hit,5,female,19
EA_exp_1b,3,2,106,35,2,m,2,2688,1101,fa,4,female,19
EA_exp_1b,3,2,107,2,2,z,2,2144,2406,cr,3,female,19
EA_exp_1b,3,2,108,20,2,z,2,9736,3067,cr,3,female,19
EA_exp_1b,3,2,109,32,2,z,3,1856,1136,cr,2,female,19
EA_exp_1b,3,2,110,182,1,m,4,3125,544,hit,6,female,19
EA_exp_1b,3,2,111,144,1,m,4,1085,586,hit,6,female,19
EA_exp_1b,3,2,112,173,1,m,4,902,538,hit,6,female,19
EA_exp_1b,3,2,113,3,2,z,2,5221,1566,cr,3,female,19
EA_exp_1b,3,2,114,29,2,m,1,2609,2082,fa,4,female,19
EA_exp_1b,3,2,115,71,2,z,1,3746,627,cr,3,female,19
EA_exp_1b,3,2,116,62,2,z,4,1868,763,cr,1,female,19
EA_exp_1b,3,2,117,166,1,m,4,5054,927,hit,6,female,19
EA_exp_1b,3,2,118,160,1,m,4,2137,398,hit,6,female,19
EA_exp_1b,3,2,119,112,1,m,4,2962,419,hit,6,female,19
EA_exp_1b,3,2,120,92,2,z,2,1858,1906,cr,3,female,19
EA_exp_1b,3,2,121,70,2,z,2,1655,527,cr,3,female,19
EA_exp_1b,3,2,122,161,1,z,1,3644,755,miss,3,female,19
EA_exp_1b,3,2,123,115,1,m,4,1189,1583,hit,6,female,19
EA_exp_1b,3,2,124,135,1,m,4,996,451,hit,6,female,19
EA_exp_1b,3,2,125,178,1,m,4,705,431,hit,6,female,19
EA_exp_1b,3,2,126,74,2,z,1,2415,1384,cr,3,female,19
EA_exp_1b,3,2,127,164,1,m,4,1026,594,hit,6,female,19
EA_exp_1b,3,2,128,162,1,m,4,958,399,hit,6,female,19
EA_exp_1b,3,2,129,4,2,z,1,1423,417,cr,3,female,19
EA_exp_1b,3,2,130,159,1,m,4,1028,385,hit,6,female,19
EA_exp_1b,3,2,131,85,2,z,1,4995,2821,cr,3,female,19
EA_exp_1b,3,2,132,174,1,m,4,1958,1232,hit,6,female,19
EA_exp_1b,3,2,133,66,2,z,4,2624,1793,cr,1,female,19
EA_exp_1b,3,2,134,200,1,z,2,2940,2127,miss,3,female,19
EA_exp_1b,3,2,135,171,1,m,2,1643,2835,hit,4,female,19
EA_exp_1b,3,2,136,194,1,m,4,3365,950,hit,6,female,19
EA_exp_1b,3,2,137,68,2,z,1,2480,1159,cr,3,female,19
EA_exp_1b,3,2,138,27,2,z,3,2138,3870,cr,2,female,19
EA_exp_1b,3,2,139,86,2,z,2,2787,1935,cr,3,female,19
EA_exp_1b,3,2,140,110,1,z,4,2178,917,miss,1,female,19
EA_exp_1b,3,2,141,10,2,z,4,1186,620,cr,1,female,19
EA_exp_1b,3,2,142,176,1,m,2,3301,2810,hit,4,female,19
EA_exp_1b,3,2,143,170,1,m,4,2059,834,hit,6,female,19
EA_exp_1b,3,2,144,99,2,z,1,1730,1158,cr,3,female,19
EA_exp_1b,3,2,145,31,2,z,4,3128,2149,cr,1,female,19
EA_exp_1b,3,2,146,12,2,z,4,1281,1271,cr,1,female,19
EA_exp_1b,3,2,147,140,1,m,1,2644,1988,hit,4,female,19
EA_exp_1b,3,2,148,191,1,m,4,1862,533,hit,6,female,19
EA_exp_1b,3,2,149,79,2,z,1,3200,1579,cr,3,female,19
EA_exp_1b,3,2,150,43,2,z,1,1687,483,cr,3,female,19
EA_exp_1b,3,2,151,184,1,m,3,1376,2531,hit,5,female,19
EA_exp_1b,3,2,152,57,2,z,2,2527,1812,cr,3,female,19
EA_exp_1b,3,2,153,105,1,z,3,1821,2302,miss,2,female,19
EA_exp_1b,3,2,154,120,1,z,4,2452,2475,miss,1,female,19
EA_exp_1b,3,2,155,90,2,m,4,2344,596,fa,6,female,19
EA_exp_1b,3,2,156,188,1,m,1,3325,659,hit,4,female,19
EA_exp_1b,3,2,157,118,1,m,4,1321,559,hit,6,female,19
EA_exp_1b,3,2,158,111,1,z,2,2330,1190,miss,3,female,19
EA_exp_1b,3,2,159,130,1,z,2,1799,1098,miss,3,female,19
EA_exp_1b,3,2,160,169,1,m,4,1264,934,hit,6,female,19
EA_exp_1b,3,2,161,126,1,m,4,1810,403,hit,6,female,19
EA_exp_1b,3,2,162,131,1,m,4,851,396,hit,6,female,19
EA_exp_1b,3,2,163,127,1,m,4,748,761,hit,6,female,19
EA_exp_1b,3,2,164,189,1,m,4,925,288,hit,6,female,19
EA_exp_1b,3,2,165,16,2,m,3,1349,1017,fa,5,female,19
EA_exp_1b,3,2,166,103,1,m,4,2260,801,hit,6,female,19
EA_exp_1b,3,2,167,73,2,m,1,851,1978,fa,4,female,19
EA_exp_1b,3,2,168,117,1,z,2,2331,488,miss,3,female,19
EA_exp_1b,3,2,169,190,1,z,2,4055,574,miss,3,female,19
EA_exp_1b,3,2,170,158,1,m,1,2438,864,hit,4,female,19
EA_exp_1b,3,2,171,116,1,m,3,5420,1600,hit,5,female,19
EA_exp_1b,3,2,172,69,2,z,4,1376,1346,cr,1,female,19
EA_exp_1b,3,2,173,107,1,m,4,1184,682,hit,6,female,19
EA_exp_1b,3,2,174,94,2,z,1,6654,959,cr,3,female,19
EA_exp_1b,3,2,175,119,1,m,2,1066,1114,hit,4,female,19
EA_exp_1b,3,2,176,24,2,z,2,1533,2746,cr,3,female,19
EA_exp_1b,3,2,177,93,2,z,2,1627,471,cr,3,female,19
EA_exp_1b,3,2,178,150,1,m,4,1187,864,hit,6,female,19
EA_exp_1b,3,2,179,55,2,z,2,1948,1082,cr,3,female,19
EA_exp_1b,3,2,180,88,2,z,4,1298,1351,cr,1,female,19
EA_exp_1b,3,2,181,26,2,z,4,1020,610,cr,1,female,19
EA_exp_1b,3,2,182,47,2,z,4,890,433,cr,1,female,19
EA_exp_1b,3,2,183,60,2,z,4,3343,516,cr,1,female,19
EA_exp_1b,3,2,184,195,1,m,1,1339,1941,hit,4,female,19
EA_exp_1b,3,2,185,149,1,z,4,1656,2239,miss,1,female,19
EA_exp_1b,3,2,186,104,1,z,2,2008,735,miss,3,female,19
EA_exp_1b,3,2,187,77,2,z,2,947,407,cr,3,female,19
EA_exp_1b,3,2,188,64,2,z,2,1370,316,cr,3,female,19
EA_exp_1b,3,2,189,129,1,m,4,2594,2514,hit,6,female,19
EA_exp_1b,3,2,190,136,1,m,4,863,390,hit,6,female,19
EA_exp_1b,3,2,191,53,2,z,3,1430,7847,cr,2,female,19
EA_exp_1b,3,2,192,108,1,m,4,1200,634,hit,6,female,19
EA_exp_1b,3,2,193,25,2,z,2,2095,1046,cr,3,female,19
EA_exp_1b,3,2,194,148,1,m,2,2397,1719,hit,4,female,19
EA_exp_1b,3,2,195,30,2,z,1,2276,1778,cr,3,female,19
EA_exp_1b,3,2,196,75,2,z,2,2330,952,cr,3,female,19
EA_exp_1b,3,2,197,133,1,m,4,1155,640,hit,6,female,19
EA_exp_1b,3,2,198,76,2,z,2,983,714,cr,3,female,19
EA_exp_1b,3,2,199,7,2,z,2,1229,422,cr,3,female,19
EA_exp_1b,3,2,200,19,2,z,2,2535,427,cr,3,female,19
EA_exp_1b,4,1,1,153,2,z,2,4491,2683,cr,3,female,18
EA_exp_1b,4,1,2,190,2,z,2,2945,1829,cr,3,female,18
EA_exp_1b,4,1,3,80,1,m,4,2749,1913,hit,6,female,18
EA_exp_1b,4,1,4,99,1,m,4,2012,919,hit,6,female,18
EA_exp_1b,4,1,5,13,1,m,3,4146,2487,hit,5,female,18
EA_exp_1b,4,1,6,170,2,m,2,2548,1512,fa,4,female,18
EA_exp_1b,4,1,7,36,1,m,4,2190,687,hit,6,female,18
EA_exp_1b,4,1,8,114,2,z,2,2098,1786,cr,3,female,18
EA_exp_1b,4,1,9,182,2,m,3,2549,1432,fa,5,female,18
EA_exp_1b,4,1,10,6,1,m,4,1584,474,hit,6,female,18
EA_exp_1b,4,1,11,117,2,m,2,2264,1064,fa,4,female,18
EA_exp_1b,4,1,12,121,2,z,2,2700,1293,cr,3,female,18
EA_exp_1b,4,1,13,15,1,m,3,1177,1156,hit,5,female,18
EA_exp_1b,4,1,14,71,1,z,2,1367,651,miss,3,female,18
EA_exp_1b,4,1,15,148,2,m,2,5330,966,fa,4,female,18
EA_exp_1b,4,1,16,39,1,z,3,1584,1787,miss,2,female,18
EA_exp_1b,4,1,17,2,1,m,3,5716,714,hit,5,female,18
EA_exp_1b,4,1,18,86,1,z,3,2000,601,miss,2,female,18
EA_exp_1b,4,1,19,167,2,z,3,2115,663,cr,2,female,18
EA_exp_1b,4,1,20,142,2,m,2,1790,319,fa,4,female,18
EA_exp_1b,4,1,21,134,2,z,2,2387,558,cr,3,female,18
EA_exp_1b,4,1,22,98,1,z,3,1480,487,miss,2,female,18
EA_exp_1b,4,1,23,18,1,m,3,1283,427,hit,5,female,18
EA_exp_1b,4,1,24,188,2,z,2,1898,681,cr,3,female,18
EA_exp_1b,4,1,25,101,2,z,3,1454,751,cr,2,female,18
EA_exp_1b,4,1,26,96,1,m,3,1170,605,hit,5,female,18
EA_exp_1b,4,1,27,104,2,m,2,1093,964,fa,4,female,18
EA_exp_1b,4,1,28,68,1,z,3,1488,557,miss,2,female,18
EA_exp_1b,4,1,29,123,2,z,3,1449,472,cr,2,female,18
EA_exp_1b,4,1,30,143,2,m,3,2308,771,fa,5,female,18
EA_exp_1b,4,1,31,65,1,m,4,1206,352,hit,6,female,18
EA_exp_1b,4,1,32,78,1,m,3,832,427,hit,5,female,18
EA_exp_1b,4,1,33,105,2,z,3,1963,390,cr,2,female,18
EA_exp_1b,4,1,34,87,1,z,3,1317,429,miss,2,female,18
EA_exp_1b,4,1,35,37,1,z,2,1418,1230,miss,3,female,18
EA_exp_1b,4,1,36,164,2,m,3,893,676,fa,5,female,18
EA_exp_1b,4,1,37,147,2,m,4,2137,591,fa,6,female,18
EA_exp_1b,4,1,38,149,2,z,4,1527,421,cr,1,female,18
EA_exp_1b,4,1,39,70,1,z,2,1604,463,miss,3,female,18
EA_exp_1b,4,1,40,138,2,z,2,1071,845,cr,3,female,18
EA_exp_1b,4,1,41,49,1,m,4,1342,1136,hit,6,female,18
EA_exp_1b,4,1,42,177,2,m,3,2482,1098,fa,5,female,18
EA_exp_1b,4,1,43,186,2,m,2,1743,563,fa,4,female,18
EA_exp_1b,4,1,44,183,2,z,3,2157,561,cr,2,female,18
EA_exp_1b,4,1,45,132,2,z,3,1405,3726,cr,2,female,18
EA_exp_1b,4,1,46,73,1,m,3,5801,523,hit,5,female,18
EA_exp_1b,4,1,47,28,1,z,3,1401,650,miss,2,female,18
EA_exp_1b,4,1,48,79,1,m,3,1025,401,hit,5,female,18
EA_exp_1b,4,1,49,30,1,z,2,1444,417,miss,3,female,18
EA_exp_1b,4,1,50,59,1,m,4,1714,327,hit,6,female,18
EA_exp_1b,4,1,51,106,2,z,2,1469,330,cr,3,female,18
EA_exp_1b,4,1,52,176,2,z,3,1102,604,cr,2,female,18
EA_exp_1b,4,1,53,181,2,z,2,946,585,cr,3,female,18
EA_exp_1b,4,1,54,173,2,z,2,721,703,cr,3,female,18
EA_exp_1b,4,1,55,126,2,z,1,934,3417,cr,3,female,18
EA_exp_1b,4,1,56,67,1,m,3,1233,282,hit,5,female,18
EA_exp_1b,4,1,57,56,1,m,4,1102,510,hit,6,female,18
EA_exp_1b,4,1,58,95,1,m,2,1913,552,hit,4,female,18
EA_exp_1b,4,1,59,14,1,m,4,1155,382,hit,6,female,18
EA_exp_1b,4,1,60,192,2,z,3,1344,403,cr,2,female,18
EA_exp_1b,4,1,61,197,2,z,2,1478,419,cr,3,female,18
EA_exp_1b,4,1,62,94,1,z,2,896,425,miss,3,female,18
EA_exp_1b,4,1,63,112,2,z,2,763,469,cr,3,female,18
EA_exp_1b,4,1,64,124,2,z,2,2131,424,cr,3,female,18
EA_exp_1b,4,1,65,196,2,z,2,662,566,cr,3,female,18
EA_exp_1b,4,1,66,22,1,z,2,991,1315,miss,3,female,18
EA_exp_1b,4,1,67,82,1,m,2,1456,416,hit,4,female,18
EA_exp_1b,4,1,68,157,2,z,2,2050,535,cr,3,female,18
EA_exp_1b,4,1,69,102,2,z,2,865,667,cr,3,female,18
EA_exp_1b,4,1,70,199,2,z,2,736,510,cr,3,female,18
EA_exp_1b,4,1,71,7,1,m,2,1177,357,hit,4,female,18
EA_exp_1b,4,1,72,178,2,z,2,1394,441,cr,3,female,18
EA_exp_1b,4,1,73,136,2,z,2,1064,457,cr,3,female,18
EA_exp_1b,4,1,74,38,1,m,4,1514,244,hit,6,female,18
EA_exp_1b,4,1,75,24,1,m,3,1836,220,hit,5,female,18
EA_exp_1b,4,1,76,162,2,z,3,1510,1298,cr,2,female,18
EA_exp_1b,4,1,77,43,1,m,4,1569,314,hit,6,female,18
EA_exp_1b,4,1,78,103,2,z,2,1679,357,cr,3,female,18
EA_exp_1b,4,1,79,91,1,z,3,889,431,miss,2,female,18
EA_exp_1b,4,1,80,90,1,z,2,850,407,miss,3,female,18
EA_exp_1b,4,1,81,144,2,m,2,1543,257,fa,4,female,18
EA_exp_1b,4,1,82,63,1,m,4,1755,366,hit,6,female,18
EA_exp_1b,4,1,83,32,1,m,4,1360,1556,hit,6,female,18
EA_exp_1b,4,1,84,16,1,m,4,1242,335,hit,6,female,18
EA_exp_1b,4,1,85,146,2,z,3,1237,380,cr,2,female,18
EA_exp_1b,4,1,86,54,1,m,3,1103,380,hit,5,female,18
EA_exp_1b,4,1,87,21,1,m,4,1295,356,hit,6,female,18
EA_exp_1b,4,1,88,53,1,m,4,932,299,hit,6,female,18
EA_exp_1b,4,1,89,33,1,z,2,1201,331,miss,3,female,18
EA_exp_1b,4,1,90,118,2,z,3,940,368,cr,2,female,18
EA_exp_1b,4,1,91,60,1,z,3,740,320,miss,2,female,18
EA_exp_1b,4,1,92,89,1,m,4,1031,388,hit,6,female,18
EA_exp_1b,4,1,93,41,1,m,3,1381,281,hit,5,female,18
EA_exp_1b,4,1,94,130,2,z,2,831,902,cr,3,female,18
EA_exp_1b,4,1,95,19,1,z,3,1125,336,miss,2,female,18
EA_exp_1b,4,1,96,169,2,z,3,662,1265,cr,2,female,18
EA_exp_1b,4,1,97,174,2,z,3,642,385,cr,2,female,18
EA_exp_1b,4,1,98,29,1,m,4,854,363,hit,6,female,18
EA_exp_1b,4,1,99,62,1,m,4,1453,301,hit,6,female,18
EA_exp_1b,4,1,100,152,2,z,3,865,393,cr,2,female,18
EA_exp_1b,4,1,101,154,2,z,4,1260,402,cr,1,female,18
EA_exp_1b,4,1,102,166,2,z,3,980,309,cr,2,female,18
EA_exp_1b,4,1,103,193,2,z,3,634,379,cr,2,female,18
EA_exp_1b,4,1,104,160,2,m,3,1005,576,fa,5,female,18
EA_exp_1b,4,1,105,44,1,m,4,1542,309,hit,6,female,18
EA_exp_1b,4,1,106,161,2,m,2,3338,382,fa,4,female,18
EA_exp_1b,4,1,107,47,1,m,4,1123,283,hit,6,female,18
EA_exp_1b,4,1,108,40,1,m,2,2021,396,hit,4,female,18
EA_exp_1b,4,1,109,159,2,z,3,1263,356,cr,2,female,18
EA_exp_1b,4,1,110,133,2,z,2,1445,471,cr,3,female,18
EA_exp_1b,4,1,111,23,1,m,3,1191,287,hit,5,female,18
EA_exp_1b,4,1,112,194,2,z,2,835,350,cr,3,female,18
EA_exp_1b,4,1,113,58,1,m,4,834,617,hit,6,female,18
EA_exp_1b,4,1,114,77,1,z,2,1600,1083,miss,3,female,18
EA_exp_1b,4,1,115,140,2,z,2,1025,1025,cr,3,female,18
EA_exp_1b,4,1,116,83,1,z,2,763,1236,miss,3,female,18
EA_exp_1b,4,1,117,9,1,z,2,757,687,miss,3,female,18
EA_exp_1b,4,1,118,61,1,z,2,1045,341,miss,3,female,18
EA_exp_1b,4,1,119,158,2,z,3,1162,3315,cr,2,female,18
EA_exp_1b,4,1,120,48,1,m,3,1168,363,hit,5,female,18
EA_exp_1b,4,1,121,175,2,z,3,3515,1147,cr,2,female,18
EA_exp_1b,4,1,122,137,2,m,2,959,530,fa,4,female,18
EA_exp_1b,4,1,123,185,2,z,2,1054,350,cr,3,female,18
EA_exp_1b,4,1,124,8,1,z,2,1010,322,miss,3,female,18
EA_exp_1b,4,1,125,200,2,z,3,1925,755,cr,2,female,18
EA_exp_1b,4,1,126,10,1,m,4,1014,1527,hit,6,female,18
EA_exp_1b,4,1,127,116,2,m,4,1339,303,fa,6,female,18
EA_exp_1b,4,1,128,72,1,z,2,1687,315,miss,3,female,18
EA_exp_1b,4,1,129,26,1,m,4,895,565,hit,6,female,18
EA_exp_1b,4,1,130,172,2,m,3,1091,398,fa,5,female,18
EA_exp_1b,4,1,131,145,2,z,4,1666,2103,cr,1,female,18
EA_exp_1b,4,1,132,69,1,m,3,1351,360,hit,5,female,18
EA_exp_1b,4,1,133,115,2,m,2,1773,302,fa,4,female,18
EA_exp_1b,4,1,134,191,2,m,2,740,351,fa,4,female,18
EA_exp_1b,4,1,135,81,1,m,3,787,460,hit,5,female,18
EA_exp_1b,4,1,136,25,1,z,3,1867,507,miss,2,female,18
EA_exp_1b,4,1,137,198,2,z,3,391,321,cr,2,female,18
EA_exp_1b,4,1,138,66,1,z,2,887,1772,miss,3,female,18
EA_exp_1b,4,1,139,150,2,z,2,1527,818,cr,3,female,18
EA_exp_1b,4,1,140,92,1,m,4,1252,443,hit,6,female,18
EA_exp_1b,4,1,141,12,1,m,4,1577,245,hit,6,female,18
EA_exp_1b,4,1,142,42,1,z,2,1069,331,miss,3,female,18
EA_exp_1b,4,1,143,100,1,z,2,1406,272,miss,3,female,18
EA_exp_1b,4,1,144,110,2,m,3,1048,598,fa,5,female,18
EA_exp_1b,4,1,145,187,2,z,3,1297,374,cr,2,female,18
EA_exp_1b,4,1,146,179,2,m,2,1224,241,fa,4,female,18
EA_exp_1b,4,1,147,141,2,z,3,873,671,cr,2,female,18
EA_exp_1b,4,1,148,88,1,m,3,1158,240,hit,5,female,18
EA_exp_1b,4,1,149,120,2,z,2,1125,356,cr,3,female,18
EA_exp_1b,4,1,150,139,2,z,3,1320,412,cr,2,female,18
EA_exp_1b,4,1,151,76,1,m,3,831,454,hit,5,female,18
EA_exp_1b,4,1,152,111,2,z,2,1671,348,cr,3,female,18
EA_exp_1b,4,1,153,109,2,z,2,529,308,cr,3,female,18
EA_exp_1b,4,1,154,35,1,z,2,1050,328,miss,3,female,18
EA_exp_1b,4,1,155,52,1,z,3,683,843,miss,2,female,18
EA_exp_1b,4,1,156,4,1,z,3,1195,276,miss,2,female,18
EA_exp_1b,4,1,157,195,2,z,3,954,1182,cr,2,female,18
EA_exp_1b,4,1,158,5,1,z,3,817,585,miss,2,female,18
EA_exp_1b,4,1,159,20,1,z,3,820,348,miss,2,female,18
EA_exp_1b,4,1,160,84,1,m,4,2255,847,hit,6,female,18
EA_exp_1b,4,1,161,64,1,z,2,5314,915,miss,3,female,18
EA_exp_1b,4,1,162,171,2,m,2,1696,487,fa,4,female,18
EA_exp_1b,4,1,163,168,2,m,2,1094,354,fa,4,female,18
EA_exp_1b,4,1,164,119,2,z,3,1653,381,cr,2,female,18
EA_exp_1b,4,1,165,129,2,z,2,1392,337,cr,3,female,18
EA_exp_1b,4,1,166,57,1,m,3,1654,268,hit,5,female,18
EA_exp_1b,4,1,167,31,1,m,2,2019,651,hit,4,female,18
EA_exp_1b,4,1,168,180,2,z,2,1103,367,cr,3,female,18
EA_exp_1b,4,1,169,74,1,m,2,1812,163,hit,4,female,18
EA_exp_1b,4,1,170,85,1,z,2,1198,279,miss,3,female,18
EA_exp_1b,4,1,171,113,2,z,2,847,309,cr,3,female,18
EA_exp_1b,4,1,172,127,2,z,2,665,313,cr,3,female,18
EA_exp_1b,4,1,173,155,2,z,3,766,409,cr,2,female,18
EA_exp_1b,4,1,174,107,2,z,3,570,286,cr,2,female,18
EA_exp_1b,4,1,175,108,2,z,3,885,265,cr,2,female,18
EA_exp_1b,4,1,176,151,2,z,3,834,265,cr,2,female,18
EA_exp_1b,4,1,177,156,2,z,3,605,289,cr,2,female,18
EA_exp_1b,4,1,178,46,1,m,3,1461,373,hit,5,female,18
EA_exp_1b,4,1,179,17,1,m,3,3495,470,hit,5,female,18
EA_exp_1b,4,1,180,131,2,z,2,1941,303,cr,3,female,18
EA_exp_1b,4,1,181,27,1,z,2,983,215,miss,3,female,18
EA_exp_1b,4,1,182,34,1,m,3,1118,285,hit,5,female,18
EA_exp_1b,4,1,183,189,2,z,2,1330,294,cr,3,female,18
EA_exp_1b,4,1,184,135,2,z,2,1245,276,cr,3,female,18
EA_exp_1b,4,1,185,11,1,m,3,1113,344,hit,5,female,18
EA_exp_1b,4,1,186,184,2,m,3,1996,309,fa,5,female,18
EA_exp_1b,4,1,187,125,2,z,2,666,329,cr,3,female,18
EA_exp_1b,4,1,188,75,1,z,2,461,1669,miss,3,female,18
EA_exp_1b,4,1,189,45,1,m,4,1204,700,hit,6,female,18
EA_exp_1b,4,1,190,165,2,z,2,770,876,cr,3,female,18
EA_exp_1b,4,1,191,55,1,m,3,1994,404,hit,5,female,18
EA_exp_1b,4,1,192,1,1,m,4,821,398,hit,6,female,18
EA_exp_1b,4,1,193,51,1,z,3,1226,488,miss,2,female,18
EA_exp_1b,4,1,194,3,1,m,4,968,536,hit,6,female,18
EA_exp_1b,4,1,195,163,2,z,2,915,762,cr,3,female,18
EA_exp_1b,4,1,196,50,1,z,2,1185,390,miss,3,female,18
EA_exp_1b,4,1,197,93,1,m,4,1227,769,hit,6,female,18
EA_exp_1b,4,1,198,128,2,z,3,1189,382,cr,2,female,18
EA_exp_1b,4,1,199,122,2,z,3,1055,703,cr,2,female,18
EA_exp_1b,4,1,200,97,1,z,2,787,366,miss,3,female,18
EA_exp_1b,5,2,1,139,1,m,2,4123,7837,hit,4,other,18
EA_exp_1b,5,2,2,147,1,m,4,2785,2174,hit,6,other,18
EA_exp_1b,5,2,3,184,1,z,2,2838,480,miss,3,other,18
EA_exp_1b,5,2,4,126,1,m,4,2764,986,hit,6,other,18
EA_exp_1b,5,2,5,59,2,z,2,1714,1463,cr,3,other,18
EA_exp_1b,5,2,6,141,1,z,2,1599,891,miss,3,other,18
EA_exp_1b,5,2,7,11,2,m,3,1768,1082,fa,5,other,18
EA_exp_1b,5,2,8,19,2,m,2,1856,608,fa,4,other,18
EA_exp_1b,5,2,9,106,1,z,3,1128,630,miss,2,other,18
EA_exp_1b,5,2,10,32,2,z,2,5915,891,cr,3,other,18
EA_exp_1b,5,2,11,17,2,z,1,1527,212,cr,3,other,18
EA_exp_1b,5,2,12,82,2,m,2,1628,150,fa,4,other,18
EA_exp_1b,5,2,13,49,2,m,3,1040,848,fa,5,other,18
EA_exp_1b,5,2,14,115,1,m,2,1709,166,hit,4,other,18
EA_exp_1b,5,2,15,185,1,m,2,878,390,hit,4,other,18
EA_exp_1b,5,2,16,163,1,z,3,1286,351,miss,2,other,18
EA_exp_1b,5,2,17,85,2,z,2,1631,313,cr,3,other,18
EA_exp_1b,5,2,18,107,1,m,4,1279,517,hit,6,other,18
EA_exp_1b,5,2,19,52,2,z,2,1456,337,cr,3,other,18
EA_exp_1b,5,2,20,156,1,z,2,1955,304,miss,3,other,18
EA_exp_1b,5,2,21,77,2,z,2,1090,289,cr,3,other,18
EA_exp_1b,5,2,22,50,2,z,2,1111,660,cr,3,other,18
EA_exp_1b,5,2,23,198,1,z,3,1277,578,miss,2,other,18
EA_exp_1b,5,2,24,186,1,m,3,1179,262,hit,5,other,18
EA_exp_1b,5,2,25,41,2,m,3,1354,160,fa,5,other,18
EA_exp_1b,5,2,26,36,2,m,3,779,165,fa,5,other,18
EA_exp_1b,5,2,27,129,1,m,4,978,196,hit,6,other,18
EA_exp_1b,5,2,28,135,1,m,1,1037,429,hit,4,other,18
EA_exp_1b,5,2,29,3,2,z,3,1116,457,cr,2,other,18
EA_exp_1b,5,2,30,93,2,m,4,1128,229,fa,6,other,18
EA_exp_1b,5,2,31,114,1,z,2,1167,314,miss,3,other,18
EA_exp_1b,5,2,32,133,1,m,4,990,303,hit,6,other,18
EA_exp_1b,5,2,33,67,2,z,2,2372,287,cr,3,other,18
EA_exp_1b,5,2,34,29,2,z,1,1523,946,cr,3,other,18
EA_exp_1b,5,2,35,172,1,m,2,1181,344,hit,4,other,18
EA_exp_1b,5,2,36,83,2,m,3,1754,255,fa,5,other,18
EA_exp_1b,5,2,37,58,2,m,4,2103,475,fa,6,other,18
EA_exp_1b,5,2,38,109,1,m,4,748,214,hit,6,other,18
EA_exp_1b,5,2,39,48,2,z,2,1102,396,cr,3,other,18
EA_exp_1b,5,2,40,102,1,m,4,927,291,hit,6,other,18
EA_exp_1b,5,2,41,12,2,z,2,1239,383,cr,3,other,18
EA_exp_1b,5,2,42,187,1,m,4,720,478,hit,6,other,18
EA_exp_1b,5,2,43,6,2,z,2,1308,434,cr,3,other,18
EA_exp_1b,5,2,44,144,1,z,2,1569,635,miss,3,other,18
EA_exp_1b,5,2,45,100,2,z,2,1074,418,cr,3,other,18
EA_exp_1b,5,2,46,116,1,z,3,1313,375,miss,2,other,18
EA_exp_1b,5,2,47,164,1,m,3,744,565,hit,5,other,18
EA_exp_1b,5,2,48,26,2,m,2,1969,395,fa,4,other,18
EA_exp_1b,5,2,49,89,2,m,2,974,511,fa,4,other,18
EA_exp_1b,5,2,50,80,2,z,3,1066,524,cr,2,other,18
EA_exp_1b,5,2,51,34,2,z,3,871,350,cr,2,other,18
EA_exp_1b,5,2,52,87,2,m,3,1106,207,fa,5,other,18
EA_exp_1b,5,2,53,169,1,m,4,712,229,hit,6,other,18
EA_exp_1b,5,2,54,28,2,z,2,1421,334,cr,3,other,18
EA_exp_1b,5,2,55,38,2,z,3,1088,400,cr,2,other,18
EA_exp_1b,5,2,56,33,2,z,2,1025,817,cr,3,other,18
EA_exp_1b,5,2,57,138,1,m,2,2288,207,hit,4,other,18
EA_exp_1b,5,2,58,125,1,m,2,887,318,hit,4,other,18
EA_exp_1b,5,2,59,9,2,m,3,738,591,fa,5,other,18
EA_exp_1b,5,2,60,120,1,z,2,1066,328,miss,3,other,18
EA_exp_1b,5,2,61,84,2,z,1,1082,346,cr,3,other,18
EA_exp_1b,5,2,62,37,2,z,2,1743,466,cr,3,other,18
EA_exp_1b,5,2,63,165,1,m,4,674,255,hit,6,other,18
EA_exp_1b,5,2,64,174,1,m,4,743,322,hit,6,other,18
EA_exp_1b,5,2,65,145,1,m,4,809,239,hit,6,other,18
EA_exp_1b,5,2,66,88,2,m,4,757,338,fa,6,other,18
EA_exp_1b,5,2,67,16,2,z,2,1012,502,cr,3,other,18
EA_exp_1b,5,2,68,7,2,z,3,883,345,cr,2,other,18
EA_exp_1b,5,2,69,45,2,z,4,812,342,cr,1,other,18
EA_exp_1b,5,2,70,122,1,z,3,682,345,miss,2,other,18
EA_exp_1b,5,2,71,43,2,m,2,731,296,fa,4,other,18
EA_exp_1b,5,2,72,175,1,z,3,624,447,miss,2,other,18
EA_exp_1b,5,2,73,55,2,z,1,1166,280,cr,3,other,18
EA_exp_1b,5,2,74,179,1,m,3,800,266,hit,5,other,18
EA_exp_1b,5,2,75,183,1,z,4,673,399,miss,1,other,18
EA_exp_1b,5,2,76,190,1,m,4,771,268,hit,6,other,18
EA_exp_1b,5,2,77,18,2,z,2,772,317,cr,3,other,18
EA_exp_1b,5,2,78,73,2,z,3,577,532,cr,2,other,18
EA_exp_1b,5,2,79,1,2,z,4,896,838,cr,1,other,18
EA_exp_1b,5,2,80,8,2,m,4,915,298,fa,6,other,18
EA_exp_1b,5,2,81,22,2,z,3,399,394,cr,2,other,18
EA_exp_1b,5,2,82,192,1,m,4,829,212,hit,6,other,18
EA_exp_1b,5,2,83,161,1,m,4,494,243,hit,6,other,18
EA_exp_1b,5,2,84,91,2,z,2,1532,295,cr,3,other,18
EA_exp_1b,5,2,85,70,2,z,3,892,338,cr,2,other,18
EA_exp_1b,5,2,86,177,1,z,2,917,523,miss,3,other,18
EA_exp_1b,5,2,87,158,1,m,4,950,218,hit,6,other,18
EA_exp_1b,5,2,88,140,1,m,4,562,198,hit,6,other,18
EA_exp_1b,5,2,89,150,1,m,4,802,185,hit,6,other,18
EA_exp_1b,5,2,90,176,1,m,4,707,240,hit,6,other,18
EA_exp_1b,5,2,91,56,2,z,3,5624,368,cr,2,other,18
EA_exp_1b,5,2,92,75,2,z,2,1234,523,cr,3,other,18
EA_exp_1b,5,2,93,66,2,z,2,934,604,cr,3,other,18
EA_exp_1b,5,2,94,195,1,m,3,962,263,hit,5,other,18
EA_exp_1b,5,2,95,154,1,m,4,720,236,hit,6,other,18
EA_exp_1b,5,2,96,199,1,m,4,578,565,hit,6,other,18
EA_exp_1b,5,2,97,182,1,z,2,432,537,miss,3,other,18
EA_exp_1b,5,2,98,44,2,z,3,1604,302,cr,2,other,18
EA_exp_1b,5,2,99,47,2,m,4,1169,238,fa,6,other,18
EA_exp_1b,5,2,100,2,2,z,2,612,487,cr,3,other,18
EA_exp_1b,5,2,101,60,2,z,4,548,728,cr,1,other,18
EA_exp_1b,5,2,102,112,1,m,2,907,962,hit,4,other,18
EA_exp_1b,5,2,103,170,1,m,2,765,279,hit,4,other,18
EA_exp_1b,5,2,104,197,1,z,3,1580,280,miss,2,other,18
EA_exp_1b,5,2,105,78,2,m,4,669,653,fa,6,other,18
EA_exp_1b,5,2,106,155,1,z,2,866,523,miss,3,other,18
EA_exp_1b,5,2,107,117,1,m,4,1481,726,hit,6,other,18
EA_exp_1b,5,2,108,193,1,m,4,566,317,hit,6,other,18
EA_exp_1b,5,2,109,113,1,m,4,816,203,hit,6,other,18
EA_exp_1b,5,2,110,61,2,z,2,2182,438,cr,3,other,18
EA_exp_1b,5,2,111,124,1,z,3,998,519,miss,2,other,18
EA_exp_1b,5,2,112,96,2,z,4,1733,424,cr,1,other,18
EA_exp_1b,5,2,113,81,2,z,3,919,430,cr,2,other,18
EA_exp_1b,5,2,114,189,1,z,4,923,994,miss,1,other,18
EA_exp_1b,5,2,115,90,2,m,4,1195,661,fa,6,other,18
EA_exp_1b,5,2,116,194,1,m,4,681,395,hit,6,other,18
EA_exp_1b,5,2,117,105,1,z,3,1016,382,miss,2,other,18
EA_exp_1b,5,2,118,5,2,z,4,943,451,cr,1,other,18
EA_exp_1b,5,2,119,63,2,m,2,725,239,fa,4,other,18
EA_exp_1b,5,2,120,86,2,z,4,903,460,cr,1,other,18
EA_exp_1b,5,2,121,74,2,z,4,939,623,cr,1,other,18
EA_exp_1b,5,2,122,92,2,m,3,409,513,fa,5,other,18
EA_exp_1b,5,2,123,101,1,m,2,566,432,hit,4,other,18
EA_exp_1b,5,2,124,42,2,m,4,447,648,fa,6,other,18
EA_exp_1b,5,2,125,40,2,z,3,815,393,cr,2,other,18
EA_exp_1b,5,2,126,99,2,z,2,505,464,cr,3,other,18
EA_exp_1b,5,2,127,171,1,m,3,718,331,hit,5,other,18
EA_exp_1b,5,2,128,127,1,m,2,753,460,hit,4,other,18
EA_exp_1b,5,2,129,72,2,m,3,924,431,fa,5,other,18
EA_exp_1b,5,2,130,35,2,m,4,32,1032,fa,6,other,18
EA_exp_1b,5,2,131,131,1,m,4,657,192,hit,6,other,18
EA_exp_1b,5,2,132,62,2,z,3,970,332,cr,2,other,18
EA_exp_1b,5,2,133,15,2,z,2,845,344,cr,3,other,18
EA_exp_1b,5,2,134,110,1,z,3,349,408,miss,2,other,18
EA_exp_1b,5,2,135,196,1,z,4,359,916,miss,1,other,18
EA_exp_1b,5,2,136,137,1,m,4,797,2298,hit,6,other,18
EA_exp_1b,5,2,137,121,1,m,4,1570,379,hit,6,other,18
EA_exp_1b,5,2,138,153,1,m,4,1119,426,hit,6,other,18
EA_exp_1b,5,2,139,132,1,m,3,1020,428,hit,5,other,18
EA_exp_1b,5,2,140,130,1,m,4,1036,380,hit,6,other,18
EA_exp_1b,5,2,141,68,2,z,2,1006,416,cr,3,other,18
EA_exp_1b,5,2,142,166,1,m,3,977,420,hit,5,other,18
EA_exp_1b,5,2,143,14,2,z,2,1013,373,cr,3,other,18
EA_exp_1b,5,2,144,97,2,m,3,980,441,fa,5,other,18
EA_exp_1b,5,2,145,200,1,z,3,1227,336,miss,2,other,18
EA_exp_1b,5,2,146,71,2,z,3,837,270,cr,2,other,18
EA_exp_1b,5,2,147,188,1,z,3,1093,337,miss,2,other,18
EA_exp_1b,5,2,148,54,2,z,2,950,280,cr,3,other,18
EA_exp_1b,5,2,149,13,2,m,3,1039,368,fa,5,other,18
EA_exp_1b,5,2,150,167,1,m,2,1154,462,hit,4,other,18
EA_exp_1b,5,2,151,143,1,z,3,1146,408,miss,2,other,18
EA_exp_1b,5,2,152,51,2,z,3,1129,294,cr,2,other,18
EA_exp_1b,5,2,153,23,2,m,2,1017,429,fa,4,other,18
EA_exp_1b,5,2,154,148,1,z,1,1117,266,miss,3,other,18
EA_exp_1b,5,2,155,79,2,z,1,1007,289,cr,3,other,18
EA_exp_1b,5,2,156,173,1,m,1,967,666,hit,4,other,18
EA_exp_1b,5,2,157,31,2,m,4,1168,348,fa,6,other,18
EA_exp_1b,5,2,158,104,1,m,4,1090,462,hit,6,other,18
EA_exp_1b,5,2,159,4,2,z,4,1215,806,cr,1,other,18
EA_exp_1b,5,2,160,119,1,z,3,1062,501,miss,2,other,18
EA_exp_1b,5,2,161,178,1,m,4,1698,488,hit,6,other,18
EA_exp_1b,5,2,162,39,2,z,3,1335,314,cr,2,other,18
EA_exp_1b,5,2,163,152,1,z,3,1103,237,miss,2,other,18
EA_exp_1b,5,2,164,149,1,m,3,1110,721,hit,5,other,18
EA_exp_1b,5,2,165,118,1,z,2,2231,3495,miss,3,other,18
EA_exp_1b,5,2,166,20,2,m,2,1195,614,fa,4,other,18
EA_exp_1b,5,2,167,136,1,z,3,1023,319,miss,2,other,18
EA_exp_1b,5,2,168,146,1,z,3,244,291,miss,2,other,18
EA_exp_1b,5,2,169,98,2,m,2,1752,300,fa,4,other,18
EA_exp_1b,5,2,170,111,1,m,2,449,201,hit,4,other,18
EA_exp_1b,5,2,171,65,2,z,2,1105,223,cr,3,other,18
EA_exp_1b,5,2,172,134,1,m,3,936,108,hit,5,other,18
EA_exp_1b,5,2,173,151,1,m,3,602,106,hit,5,other,18
EA_exp_1b,5,2,174,69,2,z,1,778,178,cr,3,other,18
EA_exp_1b,5,2,175,95,2,z,1,375,230,cr,3,other,18
EA_exp_1b,5,2,176,76,2,z,4,379,1321,cr,1,other,18
EA_exp_1b,5,2,177,27,2,m,2,677,197,fa,4,other,18
EA_exp_1b,5,2,178,30,2,m,1,390,1095,fa,4,other,18
EA_exp_1b,5,2,179,108,1,z,4,845,597,miss,1,other,18
EA_exp_1b,5,2,180,64,2,m,3,673,253,fa,5,other,18
EA_exp_1b,5,2,181,162,1,z,3,787,303,miss,2,other,18
EA_exp_1b,5,2,182,123,1,m,3,724,112,hit,5,other,18
EA_exp_1b,5,2,183,128,1,z,2,797,310,miss,3,other,18
EA_exp_1b,5,2,184,181,1,m,3,636,124,hit,5,other,18
EA_exp_1b,5,2,185,46,2,m,3,583,90,fa,5,other,18
EA_exp_1b,5,2,186,21,2,m,2,423,784,fa,4,other,18
EA_exp_1b,5,2,187,191,1,m,3,372,269,hit,5,other,18
EA_exp_1b,5,2,188,157,1,m,3,549,199,hit,5,other,18
EA_exp_1b,5,2,189,24,2,z,2,1201,250,cr,3,other,18
EA_exp_1b,5,2,190,142,1,z,3,545,501,miss,2,other,18
EA_exp_1b,5,2,191,180,1,m,2,353,477,hit,4,other,18
EA_exp_1b,5,2,192,168,1,z,3,363,359,miss,2,other,18
EA_exp_1b,5,2,193,10,2,m,2,156,270,fa,4,other,18
EA_exp_1b,5,2,194,53,2,z,2,245,276,cr,3,other,18
EA_exp_1b,5,2,195,25,2,m,3,1017,523,fa,5,other,18
EA_exp_1b,5,2,196,103,1,m,2,312,340,hit,4,other,18
EA_exp_1b,5,2,197,160,1,z,3,231,441,miss,2,other,18
EA_exp_1b,5,2,198,94,2,z,3,23,1120,cr,2,other,18
EA_exp_1b,5,2,199,57,2,m,2,630,581,fa,4,other,18
EA_exp_1b,5,2,200,159,1,z,1,528,3187,miss,3,other,18
EA_exp_1b,6,1,1,108,2,z,3,3669,3693,cr,2,female,18
EA_exp_1b,6,1,2,120,2,z,2,4358,1030,cr,3,female,18
EA_exp_1b,6,1,3,100,1,m,4,3708,2291,hit,6,female,18
EA_exp_1b,6,1,4,151,2,z,4,2952,1388,cr,1,female,18
EA_exp_1b,6,1,5,187,2,z,3,2484,605,cr,2,female,18
EA_exp_1b,6,1,6,63,1,z,1,1990,863,miss,3,female,18
EA_exp_1b,6,1,7,62,1,m,4,1933,954,hit,6,female,18
EA_exp_1b,6,1,8,86,1,m,3,4104,1035,hit,5,female,18
EA_exp_1b,6,1,9,146,2,z,1,3583,653,cr,3,female,18
EA_exp_1b,6,1,10,159,2,z,1,1940,2320,cr,3,female,18
EA_exp_1b,6,1,11,13,1,z,1,7045,628,miss,3,female,18
EA_exp_1b,6,1,12,109,2,m,2,3646,1060,fa,4,female,18
EA_exp_1b,6,1,13,1,1,m,4,1805,525,hit,6,female,18
EA_exp_1b,6,1,14,147,2,z,1,2743,499,cr,3,female,18
EA_exp_1b,6,1,15,58,1,z,1,2030,1258,miss,3,female,18
EA_exp_1b,6,1,16,179,2,m,3,1752,684,fa,5,female,18
EA_exp_1b,6,1,17,150,2,m,2,3232,842,fa,4,female,18
EA_exp_1b,6,1,18,168,2,m,4,1561,517,fa,6,female,18
EA_exp_1b,6,1,19,99,1,m,4,1122,575,hit,6,female,18
EA_exp_1b,6,1,20,103,2,z,3,2553,1436,cr,2,female,18
EA_exp_1b,6,1,21,24,1,z,1,3333,409,miss,3,female,18
EA_exp_1b,6,1,22,185,2,z,2,1420,906,cr,3,female,18
EA_exp_1b,6,1,23,52,1,m,4,1238,383,hit,6,female,18
EA_exp_1b,6,1,24,11,1,m,4,1089,383,hit,6,female,18
EA_exp_1b,6,1,25,6,1,m,4,2304,399,hit,6,female,18
EA_exp_1b,6,1,26,78,1,z,3,1634,649,miss,2,female,18
EA_exp_1b,6,1,27,43,1,m,4,1311,438,hit,6,female,18
EA_exp_1b,6,1,28,96,1,m,1,1796,551,hit,4,female,18
EA_exp_1b,6,1,29,126,2,m,2,1652,650,fa,4,female,18
EA_exp_1b,6,1,30,132,2,z,2,4369,828,cr,3,female,18
EA_exp_1b,6,1,31,29,1,m,4,1596,1493,hit,6,female,18
EA_exp_1b,6,1,32,175,2,z,1,5131,504,cr,3,female,18
EA_exp_1b,6,1,33,107,2,z,3,1538,1521,cr,2,female,18
EA_exp_1b,6,1,34,112,2,z,1,3989,720,cr,3,female,18
EA_exp_1b,6,1,35,115,2,m,2,6592,726,fa,4,female,18
EA_exp_1b,6,1,36,51,1,z,3,1452,906,miss,2,female,18
EA_exp_1b,6,1,37,196,2,z,2,1510,371,cr,3,female,18
EA_exp_1b,6,1,38,144,2,z,3,1223,2111,cr,2,female,18
EA_exp_1b,6,1,39,84,1,m,2,18905,2673,hit,4,female,18
EA_exp_1b,6,1,40,189,2,z,3,5109,1285,cr,2,female,18
EA_exp_1b,6,1,41,20,1,z,3,1632,746,miss,2,female,18
EA_exp_1b,6,1,42,18,1,m,4,1758,673,hit,6,female,18
EA_exp_1b,6,1,43,10,1,m,3,2308,1476,hit,5,female,18
EA_exp_1b,6,1,44,137,2,z,2,1785,717,cr,3,female,18
EA_exp_1b,6,1,45,61,1,z,3,2016,522,miss,2,female,18
EA_exp_1b,6,1,46,142,2,m,3,1687,700,fa,5,female,18
EA_exp_1b,6,1,47,194,2,z,3,1731,693,cr,2,female,18
EA_exp_1b,6,1,48,98,1,m,2,5788,654,hit,4,female,18
EA_exp_1b,6,1,49,182,2,z,3,2001,415,cr,2,female,18
EA_exp_1b,6,1,50,121,2,z,4,1021,401,cr,1,female,18
EA_exp_1b,6,1,51,140,2,z,2,2896,535,cr,3,female,18
EA_exp_1b,6,1,52,110,2,m,3,1714,375,fa,5,female,18
EA_exp_1b,6,1,53,152,2,z,2,1180,436,cr,3,female,18
EA_exp_1b,6,1,54,123,2,m,2,1537,495,fa,4,female,18
EA_exp_1b,6,1,55,31,1,m,3,11531,1914,hit,5,female,18
EA_exp_1b,6,1,56,184,2,z,2,1660,485,cr,3,female,18
EA_exp_1b,6,1,57,69,1,m,4,1605,460,hit,6,female,18
EA_exp_1b,6,1,58,74,1,z,1,2314,761,miss,3,female,18
EA_exp_1b,6,1,59,14,1,m,4,2027,580,hit,6,female,18
EA_exp_1b,6,1,60,35,1,m,2,4572,929,hit,4,female,18
EA_exp_1b,6,1,61,192,2,z,4,3020,3006,cr,1,female,18
EA_exp_1b,6,1,62,198,2,m,2,2166,602,fa,4,female,18
EA_exp_1b,6,1,63,116,2,m,4,2511,392,fa,6,female,18
EA_exp_1b,6,1,64,54,1,z,3,1539,981,miss,2,female,18
EA_exp_1b,6,1,65,67,1,m,4,2304,365,hit,6,female,18
EA_exp_1b,6,1,66,53,1,m,4,1377,338,hit,6,female,18
EA_exp_1b,6,1,67,49,1,m,4,1350,393,hit,6,female,18
EA_exp_1b,6,1,68,83,1,z,2,3418,588,miss,3,female,18
EA_exp_1b,6,1,69,172,2,z,4,1380,536,cr,1,female,18
EA_exp_1b,6,1,70,162,2,m,4,2343,480,fa,6,female,18
EA_exp_1b,6,1,71,37,1,m,4,1550,362,hit,6,female,18
EA_exp_1b,6,1,72,128,2,z,3,1357,463,cr,2,female,18
EA_exp_1b,6,1,73,104,2,z,3,1439,511,cr,2,female,18
EA_exp_1b,6,1,74,191,2,z,3,7884,507,cr,2,female,18
EA_exp_1b,6,1,75,141,2,z,2,1298,317,cr,3,female,18
EA_exp_1b,6,1,76,154,2,m,3,1876,1057,fa,5,female,18
EA_exp_1b,6,1,77,73,1,z,3,2121,477,miss,2,female,18
EA_exp_1b,6,1,78,41,1,z,3,1338,543,miss,2,female,18
EA_exp_1b,6,1,79,156,2,m,3,1176,644,fa,5,female,18
EA_exp_1b,6,1,80,157,2,z,3,2396,1014,cr,2,female,18
EA_exp_1b,6,1,81,92,1,m,4,1695,420,hit,6,female,18
EA_exp_1b,6,1,82,134,2,m,3,1765,536,fa,5,female,18
EA_exp_1b,6,1,83,72,1,z,1,2067,1147,miss,3,female,18
EA_exp_1b,6,1,84,166,2,z,1,1228,438,cr,3,female,18
EA_exp_1b,6,1,85,45,1,z,1,3062,325,miss,3,female,18
EA_exp_1b,6,1,86,176,2,z,2,1686,543,cr,3,female,18
EA_exp_1b,6,1,87,171,2,m,3,1274,417,fa,5,female,18
EA_exp_1b,6,1,88,66,1,m,4,1733,4325,hit,6,female,18
EA_exp_1b,6,1,89,15,1,m,4,1193,740,hit,6,female,18
EA_exp_1b,6,1,90,174,2,m,1,2182,746,fa,4,female,18
EA_exp_1b,6,1,91,173,2,z,2,1499,987,cr,3,female,18
EA_exp_1b,6,1,92,143,2,m,3,1140,449,fa,5,female,18
EA_exp_1b,6,1,93,28,1,z,2,1251,407,miss,3,female,18
EA_exp_1b,6,1,94,38,1,z,1,1017,378,miss,3,female,18
EA_exp_1b,6,1,95,87,1,m,2,1134,441,hit,4,female,18
EA_exp_1b,6,1,96,36,1,m,4,2215,842,hit,6,female,18
EA_exp_1b,6,1,97,44,1,z,2,1352,301,miss,3,female,18
EA_exp_1b,6,1,98,30,1,z,2,1457,241,miss,3,female,18
EA_exp_1b,6,1,99,64,1,m,3,1290,479,hit,5,female,18
EA_exp_1b,6,1,100,119,2,z,1,2043,357,cr,3,female,18
EA_exp_1b,6,1,101,7,1,m,4,1160,371,hit,6,female,18
EA_exp_1b,6,1,102,170,2,z,1,1109,546,cr,3,female,18
EA_exp_1b,6,1,103,57,1,z,2,1549,298,miss,3,female,18
EA_exp_1b,6,1,104,183,2,z,2,1358,322,cr,3,female,18
EA_exp_1b,6,1,105,106,2,z,3,1107,339,cr,2,female,18
EA_exp_1b,6,1,106,88,1,z,3,2056,1167,miss,2,female,18
EA_exp_1b,6,1,107,180,2,z,1,1714,1542,cr,3,female,18
EA_exp_1b,6,1,108,40,1,m,2,1325,383,hit,4,female,18
EA_exp_1b,6,1,109,181,2,z,3,1391,467,cr,2,female,18
EA_exp_1b,6,1,110,149,2,z,1,1250,3368,cr,3,female,18
EA_exp_1b,6,1,111,8,1,m,4,2130,344,hit,6,female,18
EA_exp_1b,6,1,112,133,2,m,4,1261,754,fa,6,female,18
EA_exp_1b,6,1,113,169,2,z,4,2452,2861,cr,1,female,18
EA_exp_1b,6,1,114,56,1,z,1,1996,1110,miss,3,female,18
EA_exp_1b,6,1,115,113,2,z,4,3142,1382,cr,1,female,18
EA_exp_1b,6,1,116,193,2,m,3,2269,975,fa,5,female,18
EA_exp_1b,6,1,117,114,2,z,4,1053,522,cr,1,female,18
EA_exp_1b,6,1,118,188,2,z,4,1479,548,cr,1,female,18
EA_exp_1b,6,1,119,79,1,z,3,1423,256,miss,2,female,18
EA_exp_1b,6,1,120,3,1,z,2,1206,288,miss,3,female,18
EA_exp_1b,6,1,121,46,1,m,4,3913,659,hit,6,female,18
EA_exp_1b,6,1,122,186,2,m,2,3195,644,fa,4,female,18
EA_exp_1b,6,1,123,22,1,z,1,1691,1713,miss,3,female,18
EA_exp_1b,6,1,124,9,1,z,1,2800,359,miss,3,female,18
EA_exp_1b,6,1,125,25,1,m,4,1337,511,hit,6,female,18
EA_exp_1b,6,1,126,165,2,m,2,3019,540,fa,4,female,18
EA_exp_1b,6,1,127,197,2,z,2,2507,686,cr,3,female,18
EA_exp_1b,6,1,128,55,1,z,1,1731,744,miss,3,female,18
EA_exp_1b,6,1,129,47,1,m,3,2828,1460,hit,5,female,18
EA_exp_1b,6,1,130,81,1,z,2,1358,2015,miss,3,female,18
EA_exp_1b,6,1,131,111,2,z,3,2943,1140,cr,2,female,18
EA_exp_1b,6,1,132,139,2,m,3,1752,651,fa,5,female,18
EA_exp_1b,6,1,133,200,2,z,1,1392,1187,cr,3,female,18
EA_exp_1b,6,1,134,148,2,z,1,1171,1632,cr,3,female,18
EA_exp_1b,6,1,135,26,1,m,4,1502,430,hit,6,female,18
EA_exp_1b,6,1,136,135,2,z,4,1260,885,cr,1,female,18
EA_exp_1b,6,1,137,124,2,z,4,3176,685,cr,1,female,18
EA_exp_1b,6,1,138,65,1,z,3,10756,270,miss,2,female,18
EA_exp_1b,6,1,139,39,1,m,4,1264,315,hit,6,female,18
EA_exp_1b,6,1,140,75,1,m,2,2289,495,hit,4,female,18
EA_exp_1b,6,1,141,34,1,z,4,4543,720,miss,1,female,18
EA_exp_1b,6,1,142,16,1,m,4,1463,356,hit,6,female,18
EA_exp_1b,6,1,143,177,2,z,1,1350,730,cr,3,female,18
EA_exp_1b,6,1,144,195,2,z,4,3773,449,cr,1,female,18
EA_exp_1b,6,1,145,138,2,m,2,1185,619,fa,4,female,18
EA_exp_1b,6,1,146,90,1,z,2,1588,766,miss,3,female,18
EA_exp_1b,6,1,147,17,1,z,3,1840,1376,miss,2,female,18
EA_exp_1b,6,1,148,23,1,z,4,1579,564,miss,1,female,18
EA_exp_1b,6,1,149,19,1,m,1,1678,550,hit,4,female,18
EA_exp_1b,6,1,150,122,2,m,2,3922,846,fa,4,female,18
EA_exp_1b,6,1,151,101,2,z,3,3434,350,cr,2,female,18
EA_exp_1b,6,1,152,118,2,z,3,2658,1377,cr,2,female,18
EA_exp_1b,6,1,153,127,2,z,2,1544,678,cr,3,female,18
EA_exp_1b,6,1,154,5,1,z,3,1244,293,miss,2,female,18
EA_exp_1b,6,1,155,27,1,m,4,1115,407,hit,6,female,18
EA_exp_1b,6,1,156,32,1,z,4,2662,423,miss,1,female,18
EA_exp_1b,6,1,157,190,2,z,1,1990,881,cr,3,female,18
EA_exp_1b,6,1,158,102,2,z,1,3185,1673,cr,3,female,18
EA_exp_1b,6,1,159,71,1,m,3,2696,453,hit,5,female,18
EA_exp_1b,6,1,160,178,2,z,2,2151,968,cr,3,female,18
EA_exp_1b,6,1,161,94,1,m,4,1730,775,hit,6,female,18
EA_exp_1b,6,1,162,153,2,z,2,1223,402,cr,3,female,18
EA_exp_1b,6,1,163,161,2,m,1,1604,604,fa,4,female,18
EA_exp_1b,6,1,164,129,2,z,2,2468,1933,cr,3,female,18
EA_exp_1b,6,1,165,50,1,z,4,4162,948,miss,1,female,18
EA_exp_1b,6,1,166,82,1,z,3,1519,381,miss,2,female,18
EA_exp_1b,6,1,167,136,2,z,4,1277,613,cr,1,female,18
EA_exp_1b,6,1,168,167,2,z,2,3837,959,cr,3,female,18
EA_exp_1b,6,1,169,70,1,z,1,1625,481,miss,3,female,18
EA_exp_1b,6,1,170,77,1,m,3,1390,450,hit,5,female,18
EA_exp_1b,6,1,171,80,1,z,2,2562,659,miss,3,female,18
EA_exp_1b,6,1,172,33,1,z,1,3320,1246,miss,3,female,18
EA_exp_1b,6,1,173,4,1,m,2,1293,565,hit,4,female,18
EA_exp_1b,6,1,174,130,2,z,2,4547,2738,cr,3,female,18
EA_exp_1b,6,1,175,117,2,z,1,3381,393,cr,3,female,18
EA_exp_1b,6,1,176,2,1,m,3,1464,761,hit,5,female,18
EA_exp_1b,6,1,177,160,2,m,3,1069,987,fa,5,female,18
EA_exp_1b,6,1,178,199,2,m,2,1650,540,fa,4,female,18
EA_exp_1b,6,1,179,95,1,z,3,1546,2132,miss,2,female,18
EA_exp_1b,6,1,180,60,1,m,4,2643,320,hit,6,female,18
EA_exp_1b,6,1,181,97,1,z,1,2052,732,miss,3,female,18
EA_exp_1b,6,1,182,68,1,m,4,1428,369,hit,6,female,18
EA_exp_1b,6,1,183,59,1,m,4,1045,354,hit,6,female,18
EA_exp_1b,6,1,184,21,1,m,4,1191,303,hit,6,female,18
EA_exp_1b,6,1,185,125,2,z,2,1591,958,cr,3,female,18
EA_exp_1b,6,1,186,89,1,m,4,3242,482,hit,6,female,18
EA_exp_1b,6,1,187,85,1,z,1,2528,516,miss,3,female,18
EA_exp_1b,6,1,188,158,2,z,3,1265,456,cr,2,female,18
EA_exp_1b,6,1,189,105,2,z,2,1386,1033,cr,3,female,18
EA_exp_1b,6,1,190,155,2,z,1,1281,920,cr,3,female,18
EA_exp_1b,6,1,191,145,2,m,4,1444,339,fa,6,female,18
EA_exp_1b,6,1,192,12,1,z,1,1353,1226,miss,3,female,18
EA_exp_1b,6,1,193,91,1,z,1,1837,779,miss,3,female,18
EA_exp_1b,6,1,194,76,1,m,2,1408,590,hit,4,female,18
EA_exp_1b,6,1,195,93,1,m,1,7292,511,hit,4,female,18
EA_exp_1b,6,1,196,163,2,m,1,2522,544,fa,4,female,18
EA_exp_1b,6,1,197,42,1,z,1,1530,504,miss,3,female,18
EA_exp_1b,6,1,198,48,1,z,2,2723,417,miss,3,female,18
EA_exp_1b,6,1,199,164,2,z,3,3332,294,cr,2,female,18
EA_exp_1b,6,1,200,131,2,z,3,2314,457,cr,2,female,18
EA_exp_1b,7,1,1,35,1,z,4,1367,2257,miss,1,female,18
EA_exp_1b,7,1,2,21,1,z,2,6328,1668,miss,3,female,18
EA_exp_1b,7,1,3,149,2,m,2,2111,1256,fa,4,female,18
EA_exp_1b,7,1,4,53,1,m,2,3126,562,hit,4,female,18
EA_exp_1b,7,1,5,116,2,m,3,2057,630,fa,5,female,18
EA_exp_1b,7,1,6,95,1,z,2,1563,569,miss,3,female,18
EA_exp_1b,7,1,7,157,2,m,4,929,999,fa,6,female,18
EA_exp_1b,7,1,8,10,1,z,3,2253,1519,miss,2,female,18
EA_exp_1b,7,1,9,100,1,z,4,1202,1117,miss,1,female,18
EA_exp_1b,7,1,10,127,2,m,3,1299,503,fa,5,female,18
EA_exp_1b,7,1,11,93,1,m,4,785,655,hit,6,female,18
EA_exp_1b,7,1,12,168,2,m,4,980,824,fa,6,female,18
EA_exp_1b,7,1,13,135,2,z,4,1113,677,cr,1,female,18
EA_exp_1b,7,1,14,179,2,z,2,1131,632,cr,3,female,18
EA_exp_1b,7,1,15,87,1,z,2,1073,799,miss,3,female,18
EA_exp_1b,7,1,16,145,2,m,4,687,799,fa,6,female,18
EA_exp_1b,7,1,17,138,2,z,2,3442,544,cr,3,female,18
EA_exp_1b,7,1,18,172,2,m,2,1177,310,fa,4,female,18
EA_exp_1b,7,1,19,28,1,m,4,793,581,hit,6,female,18
EA_exp_1b,7,1,20,142,2,z,2,1057,462,cr,3,female,18
EA_exp_1b,7,1,21,91,1,m,2,1433,382,hit,4,female,18
EA_exp_1b,7,1,22,29,1,m,3,1490,479,hit,5,female,18
EA_exp_1b,7,1,23,17,1,z,2,1735,448,miss,3,female,18
EA_exp_1b,7,1,24,197,2,z,2,1009,402,cr,3,female,18
EA_exp_1b,7,1,25,14,1,m,3,881,569,hit,5,female,18
EA_exp_1b,7,1,26,66,1,m,2,1429,563,hit,4,female,18
EA_exp_1b,7,1,27,115,2,m,1,1932,1099,fa,4,female,18
EA_exp_1b,7,1,28,64,1,m,4,1218,393,hit,6,female,18
EA_exp_1b,7,1,29,56,1,m,2,1221,307,hit,4,female,18
EA_exp_1b,7,1,30,129,2,z,2,1081,1047,cr,3,female,18
EA_exp_1b,7,1,31,26,1,m,2,1132,587,hit,4,female,18
EA_exp_1b,7,1,32,156,2,m,3,1331,425,fa,5,female,18
EA_exp_1b,7,1,33,173,2,z,1,696,439,cr,3,female,18
EA_exp_1b,7,1,34,192,2,z,2,997,1625,cr,3,female,18
EA_exp_1b,7,1,35,199,2,z,2,1110,502,cr,3,female,18
EA_exp_1b,7,1,36,180,2,m,3,833,475,fa,5,female,18
EA_exp_1b,7,1,37,171,2,z,2,1176,340,cr,3,female,18
EA_exp_1b,7,1,38,82,1,m,3,904,445,hit,5,female,18
EA_exp_1b,7,1,39,38,1,z,3,1131,601,miss,2,female,18
EA_exp_1b,7,1,40,186,2,z,3,1299,424,cr,2,female,18
EA_exp_1b,7,1,41,152,2,z,3,1287,366,cr,2,female,18
EA_exp_1b,7,1,42,73,1,m,4,721,702,hit,6,female,18
EA_exp_1b,7,1,43,19,1,m,4,547,374,hit,6,female,18
EA_exp_1b,7,1,44,111,2,z,3,857,560,cr,2,female,18
EA_exp_1b,7,1,45,163,2,z,3,1079,361,cr,2,female,18
EA_exp_1b,7,1,46,49,1,m,4,685,443,hit,6,female,18
EA_exp_1b,7,1,47,136,2,z,3,1772,317,cr,2,female,18
EA_exp_1b,7,1,48,188,2,m,4,640,769,fa,6,female,18
EA_exp_1b,7,1,49,169,2,z,3,709,352,cr,2,female,18
EA_exp_1b,7,1,50,74,1,m,3,833,380,hit,5,female,18
EA_exp_1b,7,1,51,155,2,z,3,767,377,cr,2,female,18
EA_exp_1b,7,1,52,89,1,z,3,941,271,miss,2,female,18
EA_exp_1b,7,1,53,88,1,m,3,626,326,hit,5,female,18
EA_exp_1b,7,1,54,124,2,z,3,1148,358,cr,2,female,18
EA_exp_1b,7,1,55,123,2,z,3,923,366,cr,2,female,18
EA_exp_1b,7,1,56,106,2,m,2,3232,361,fa,4,female,18
EA_exp_1b,7,1,57,65,1,z,2,2858,339,miss,3,female,18
EA_exp_1b,7,1,58,45,1,m,4,950,746,hit,6,female,18
EA_exp_1b,7,1,59,103,2,m,4,1118,395,fa,6,female,18
EA_exp_1b,7,1,60,146,2,m,4,684,315,fa,6,female,18
EA_exp_1b,7,1,61,140,2,z,1,878,838,cr,3,female,18
EA_exp_1b,7,1,62,63,1,z,2,1039,294,miss,3,female,18
EA_exp_1b,7,1,63,102,2,z,2,635,301,cr,3,female,18
EA_exp_1b,7,1,64,109,2,m,4,704,398,fa,6,female,18
EA_exp_1b,7,1,65,130,2,m,4,654,303,fa,6,female,18
EA_exp_1b,7,1,66,166,2,z,3,1140,303,cr,2,female,18
EA_exp_1b,7,1,67,99,1,z,1,982,327,miss,3,female,18
EA_exp_1b,7,1,68,90,1,m,3,621,317,hit,5,female,18
EA_exp_1b,7,1,69,76,1,m,2,1203,362,hit,4,female,18
EA_exp_1b,7,1,70,40,1,z,2,3100,1211,miss,3,female,18
EA_exp_1b,7,1,71,132,2,m,2,907,289,fa,4,female,18
EA_exp_1b,7,1,72,112,2,z,1,1143,386,cr,3,female,18
EA_exp_1b,7,1,73,68,1,m,4,1667,299,hit,6,female,18
EA_exp_1b,7,1,74,110,2,m,4,2067,664,fa,6,female,18
EA_exp_1b,7,1,75,150,2,z,3,1438,384,cr,2,female,18
EA_exp_1b,7,1,76,31,1,m,4,867,312,hit,6,female,18
EA_exp_1b,7,1,77,184,2,z,2,1035,1005,cr,3,female,18
EA_exp_1b,7,1,78,8,1,m,4,898,668,hit,6,female,18
EA_exp_1b,7,1,79,177,2,m,4,916,263,fa,6,female,18
EA_exp_1b,7,1,80,148,2,m,4,734,426,fa,6,female,18
EA_exp_1b,7,1,81,190,2,m,4,858,290,fa,6,female,18
EA_exp_1b,7,1,82,44,1,z,1,999,377,miss,3,female,18
EA_exp_1b,7,1,83,36,1,z,1,1181,245,miss,3,female,18
EA_exp_1b,7,1,84,71,1,m,3,765,312,hit,5,female,18
EA_exp_1b,7,1,85,13,1,m,3,1117,282,hit,5,female,18
EA_exp_1b,7,1,86,182,2,z,2,1217,235,cr,3,female,18
EA_exp_1b,7,1,87,176,2,z,1,1104,303,cr,3,female,18
EA_exp_1b,7,1,88,5,1,m,1,835,540,hit,4,female,18
EA_exp_1b,7,1,89,48,1,m,4,1607,337,hit,6,female,18
EA_exp_1b,7,1,90,158,2,m,2,1174,784,fa,4,female,18
EA_exp_1b,7,1,91,70,1,m,4,1299,310,hit,6,female,18
EA_exp_1b,7,1,92,46,1,m,2,1162,726,hit,4,female,18
EA_exp_1b,7,1,93,86,1,m,2,874,305,hit,4,female,18
EA_exp_1b,7,1,94,139,2,z,3,1544,705,cr,2,female,18
EA_exp_1b,7,1,95,125,2,z,3,1253,239,cr,2,female,18
EA_exp_1b,7,1,96,162,2,z,3,744,242,cr,2,female,18
EA_exp_1b,7,1,97,178,2,m,4,890,527,fa,6,female,18
EA_exp_1b,7,1,98,119,2,m,4,1179,246,fa,6,female,18
EA_exp_1b,7,1,99,104,2,m,3,1453,589,fa,5,female,18
EA_exp_1b,7,1,100,153,2,z,2,806,320,cr,3,female,18
EA_exp_1b,7,1,101,52,1,m,4,756,399,hit,6,female,18
EA_exp_1b,7,1,102,195,2,m,4,1267,328,fa,6,female,18
EA_exp_1b,7,1,103,134,2,z,3,957,479,cr,2,female,18
EA_exp_1b,7,1,104,75,1,m,4,718,523,hit,6,female,18
EA_exp_1b,7,1,105,34,1,m,4,918,283,hit,6,female,18
EA_exp_1b,7,1,106,20,1,z,3,802,348,miss,2,female,18
EA_exp_1b,7,1,107,189,2,m,2,2466,279,fa,4,female,18
EA_exp_1b,7,1,108,4,1,z,2,767,312,miss,3,female,18
EA_exp_1b,7,1,109,108,2,m,2,1103,331,fa,4,female,18
EA_exp_1b,7,1,110,39,1,m,3,814,344,hit,5,female,18
EA_exp_1b,7,1,111,183,2,m,3,1020,253,fa,5,female,18
EA_exp_1b,7,1,112,58,1,m,4,676,818,hit,6,female,18
EA_exp_1b,7,1,113,55,1,m,3,1171,493,hit,5,female,18
EA_exp_1b,7,1,114,81,1,m,4,2393,308,hit,6,female,18
EA_exp_1b,7,1,115,185,2,m,4,744,261,fa,6,female,18
EA_exp_1b,7,1,116,67,1,m,4,729,201,hit,6,female,18
EA_exp_1b,7,1,117,51,1,m,2,1026,306,hit,4,female,18
EA_exp_1b,7,1,118,193,2,m,2,886,302,fa,4,female,18
EA_exp_1b,7,1,119,154,2,z,2,1236,314,cr,3,female,18
EA_exp_1b,7,1,120,147,2,m,2,880,742,fa,4,female,18
EA_exp_1b,7,1,121,24,1,m,2,830,305,hit,4,female,18
EA_exp_1b,7,1,122,126,2,m,2,871,253,fa,4,female,18
EA_exp_1b,7,1,123,85,1,m,2,789,206,hit,4,female,18
EA_exp_1b,7,1,124,144,2,z,2,730,212,cr,3,female,18
EA_exp_1b,7,1,125,6,1,z,2,1295,162,miss,3,female,18
EA_exp_1b,7,1,126,84,1,m,4,637,718,hit,6,female,18
EA_exp_1b,7,1,127,9,1,m,1,1284,873,hit,4,female,18
EA_exp_1b,7,1,128,60,1,z,1,648,454,miss,3,female,18
EA_exp_1b,7,1,129,43,1,m,4,1058,436,hit,6,female,18
EA_exp_1b,7,1,130,161,2,m,3,3412,550,fa,5,female,18
EA_exp_1b,7,1,131,80,1,z,2,930,308,miss,3,female,18
EA_exp_1b,7,1,132,151,2,z,3,795,467,cr,2,female,18
EA_exp_1b,7,1,133,59,1,m,4,1232,795,hit,6,female,18
EA_exp_1b,7,1,134,170,2,m,4,588,239,fa,6,female,18
EA_exp_1b,7,1,135,12,1,z,4,1127,787,miss,1,female,18
EA_exp_1b,7,1,136,41,1,z,3,997,294,miss,2,female,18
EA_exp_1b,7,1,137,27,1,z,3,1149,214,miss,2,female,18
EA_exp_1b,7,1,138,137,2,m,4,657,718,fa,6,female,18
EA_exp_1b,7,1,139,83,1,m,4,981,374,hit,6,female,18
EA_exp_1b,7,1,140,94,1,m,4,888,239,hit,6,female,18
EA_exp_1b,7,1,141,194,2,m,2,1784,441,fa,4,female,18
EA_exp_1b,7,1,142,107,2,z,4,1048,375,cr,1,female,18
EA_exp_1b,7,1,143,120,2,z,4,1067,329,cr,1,female,18
EA_exp_1b,7,1,144,200,2,z,3,716,268,cr,2,female,18
EA_exp_1b,7,1,145,77,1,z,3,1122,254,miss,2,female,18
EA_exp_1b,7,1,146,18,1,z,3,789,271,miss,2,female,18
EA_exp_1b,7,1,147,57,1,z,3,981,264,miss,2,female,18
EA_exp_1b,7,1,148,7,1,z,3,719,284,miss,2,female,18
EA_exp_1b,7,1,149,32,1,m,4,754,349,hit,6,female,18
EA_exp_1b,7,1,150,128,2,m,2,834,362,fa,4,female,18
EA_exp_1b,7,1,151,61,1,m,2,680,522,hit,4,female,18
EA_exp_1b,7,1,152,118,2,m,2,628,215,fa,4,female,18
EA_exp_1b,7,1,153,33,1,z,2,863,185,miss,3,female,18
EA_exp_1b,7,1,154,22,1,z,2,675,912,miss,3,female,18
EA_exp_1b,7,1,155,159,2,z,3,1403,414,cr,2,female,18
EA_exp_1b,7,1,156,141,2,z,1,954,514,cr,3,female,18
EA_exp_1b,7,1,157,3,1,z,2,910,245,miss,3,female,18
EA_exp_1b,7,1,158,15,1,m,3,587,845,hit,5,female,18
EA_exp_1b,7,1,159,30,1,m,4,908,339,hit,6,female,18
EA_exp_1b,7,1,160,196,2,m,1,615,232,fa,4,female,18
EA_exp_1b,7,1,161,1,1,m,1,750,444,hit,4,female,18
EA_exp_1b,7,1,162,133,2,z,2,1239,931,cr,3,female,18
EA_exp_1b,7,1,163,191,2,m,2,1119,891,fa,4,female,18
EA_exp_1b,7,1,164,72,1,z,2,1193,260,miss,3,female,18
EA_exp_1b,7,1,165,69,1,m,4,878,1136,hit,6,female,18
EA_exp_1b,7,1,166,117,2,m,2,1477,226,fa,4,female,18
EA_exp_1b,7,1,167,16,1,z,2,713,249,miss,3,female,18
EA_exp_1b,7,1,168,174,2,z,1,912,437,cr,3,female,18
EA_exp_1b,7,1,169,167,2,m,4,1283,810,fa,6,female,18
EA_exp_1b,7,1,170,54,1,m,3,782,645,hit,5,female,18
EA_exp_1b,7,1,171,37,1,m,4,1356,736,hit,6,female,18
EA_exp_1b,7,1,172,131,2,z,4,1186,430,cr,1,female,18
EA_exp_1b,7,1,173,47,1,m,2,1453,318,hit,4,female,18
EA_exp_1b,7,1,174,50,1,z,2,883,969,miss,3,female,18
EA_exp_1b,7,1,175,143,2,z,2,964,230,cr,3,female,18
EA_exp_1b,7,1,176,105,2,z,2,830,184,cr,3,female,18
EA_exp_1b,7,1,177,198,2,z,3,465,407,cr,2,female,18
EA_exp_1b,7,1,178,165,2,z,1,505,1038,cr,3,female,18
EA_exp_1b,7,1,179,97,1,z,1,966,265,miss,3,female,18
EA_exp_1b,7,1,180,42,1,m,4,1137,1036,hit,6,female,18
EA_exp_1b,7,1,181,181,2,z,2,1873,339,cr,3,female,18
EA_exp_1b,7,1,182,98,1,m,2,2360,449,hit,4,female,18
EA_exp_1b,7,1,183,175,2,z,3,1567,1164,cr,2,female,18
EA_exp_1b,7,1,184,113,2,z,1,1149,378,cr,3,female,18
EA_exp_1b,7,1,185,114,2,z,1,1573,391,cr,3,female,18
EA_exp_1b,7,1,186,11,1,m,4,1078,1127,hit,6,female,18
EA_exp_1b,7,1,187,96,1,z,1,3209,468,miss,3,female,18
EA_exp_1b,7,1,188,79,1,m,2,1167,446,hit,4,female,18
EA_exp_1b,7,1,189,121,2,m,4,1853,237,fa,6,female,18
EA_exp_1b,7,1,190,164,2,z,1,1702,395,cr,3,female,18
EA_exp_1b,7,1,191,122,2,z,2,681,250,cr,3,female,18
EA_exp_1b,7,1,192,25,1,m,4,641,400,hit,6,female,18
EA_exp_1b,7,1,193,2,1,m,4,1284,536,hit,6,female,18
EA_exp_1b,7,1,194,62,1,z,2,1092,257,miss,3,female,18
EA_exp_1b,7,1,195,187,2,z,2,966,204,cr,3,female,18
EA_exp_1b,7,1,196,23,1,m,4,837,525,hit,6,female,18
EA_exp_1b,7,1,197,101,2,m,4,1765,252,fa,6,female,18
EA_exp_1b,7,1,198,160,2,z,2,2566,310,cr,3,female,18
EA_exp_1b,7,1,199,78,1,m,2,957,1087,hit,4,female,18
EA_exp_1b,7,1,200,92,1,z,2,550,601,miss,3,female,18
EA_exp_1b,8,1,1,35,1,m,4,2899,2536,hit,6,male,28
EA_exp_1b,8,1,2,145,2,m,2,4530,1113,fa,4,male,28
EA_exp_1b,8,1,3,170,2,z,3,1593,2424,cr,2,male,28
EA_exp_1b,8,1,4,80,1,m,4,2425,1152,hit,6,male,28
EA_exp_1b,8,1,5,61,1,z,2,1698,2473,miss,3,male,28
EA_exp_1b,8,1,6,29,1,m,4,2678,870,hit,6,male,28
EA_exp_1b,8,1,7,89,1,m,4,1058,643,hit,6,male,28
EA_exp_1b,8,1,8,85,1,m,4,843,562,hit,6,male,28
EA_exp_1b,8,1,9,123,2,z,3,1437,702,cr,2,male,28
EA_exp_1b,8,1,10,26,1,z,2,1412,436,miss,3,male,28
EA_exp_1b,8,1,11,128,2,z,1,3187,429,cr,3,male,28
EA_exp_1b,8,1,12,150,2,z,2,1933,539,cr,3,male,28
EA_exp_1b,8,1,13,37,1,m,4,1206,752,hit,6,male,28
EA_exp_1b,8,1,14,92,1,m,4,4081,1161,hit,6,male,28
EA_exp_1b,8,1,15,197,2,z,2,3227,596,cr,3,male,28
EA_exp_1b,8,1,16,104,2,z,1,2752,906,cr,3,male,28
EA_exp_1b,8,1,17,52,1,m,4,1189,591,hit,6,male,28
EA_exp_1b,8,1,18,78,1,m,4,812,370,hit,6,male,28
EA_exp_1b,8,1,19,165,2,m,4,2372,254,fa,6,male,28
EA_exp_1b,8,1,20,47,1,m,4,755,353,hit,6,male,28
EA_exp_1b,8,1,21,125,2,z,1,6966,407,cr,3,male,28
EA_exp_1b,8,1,22,178,2,z,2,2761,1219,cr,3,male,28
EA_exp_1b,8,1,23,115,2,z,3,1490,578,cr,2,male,28
EA_exp_1b,8,1,24,185,2,z,2,3208,612,cr,3,male,28
EA_exp_1b,8,1,25,100,1,m,2,6270,301,hit,4,male,28
EA_exp_1b,8,1,26,93,1,m,4,897,327,hit,6,male,28
EA_exp_1b,8,1,27,58,1,m,4,824,243,hit,6,male,28
EA_exp_1b,8,1,28,110,2,z,2,1466,394,cr,3,male,28
EA_exp_1b,8,1,29,106,2,z,4,2749,392,cr,1,male,28
EA_exp_1b,8,1,30,152,2,z,3,2571,348,cr,2,male,28
EA_exp_1b,8,1,31,81,1,m,3,1361,194,hit,5,male,28
EA_exp_1b,8,1,32,74,1,m,4,827,245,hit,6,male,28
EA_exp_1b,8,1,33,36,1,m,4,779,328,hit,6,male,28
EA_exp_1b,8,1,34,183,2,z,2,1194,390,cr,3,male,28
EA_exp_1b,8,1,35,133,2,z,4,2473,334,cr,1,male,28
EA_exp_1b,8,1,36,171,2,z,2,3343,485,cr,3,male,28
EA_exp_1b,8,1,37,186,2,z,4,1043,450,cr,1,male,28
EA_exp_1b,8,1,38,101,2,z,1,2258,1008,cr,3,male,28
EA_exp_1b,8,1,39,105,2,z,3,1273,449,cr,2,male,28
EA_exp_1b,8,1,40,10,1,m,2,4382,330,hit,4,male,28
EA_exp_1b,8,1,41,192,2,z,2,7198,919,cr,3,male,28
EA_exp_1b,8,1,42,65,1,z,4,1477,2546,miss,1,male,28
EA_exp_1b,8,1,43,21,1,z,2,3053,686,miss,3,male,28
EA_exp_1b,8,1,44,129,2,z,3,1555,575,cr,2,male,28
EA_exp_1b,8,1,45,84,1,z,3,908,495,miss,2,male,28
EA_exp_1b,8,1,46,67,1,z,1,4250,445,miss,3,male,28
EA_exp_1b,8,1,47,71,1,z,1,1469,395,miss,3,male,28
EA_exp_1b,8,1,48,33,1,m,4,1181,406,hit,6,male,28
EA_exp_1b,8,1,49,195,2,z,3,2006,769,cr,2,male,28
EA_exp_1b,8,1,50,1,1,m,4,1205,268,hit,6,male,28
EA_exp_1b,8,1,51,108,2,z,4,1587,397,cr,1,male,28
EA_exp_1b,8,1,52,56,1,z,4,973,593,miss,1,male,28
EA_exp_1b,8,1,53,72,1,m,2,2589,301,hit,4,male,28
EA_exp_1b,8,1,54,68,1,m,4,2433,1770,hit,6,male,28
EA_exp_1b,8,1,55,158,2,z,2,1507,530,cr,3,male,28
EA_exp_1b,8,1,56,75,1,z,3,2766,601,miss,2,male,28
EA_exp_1b,8,1,57,73,1,m,4,1119,255,hit,6,male,28
EA_exp_1b,8,1,58,82,1,m,4,1125,243,hit,6,male,28
EA_exp_1b,8,1,59,11,1,m,4,777,276,hit,6,male,28
EA_exp_1b,8,1,60,193,2,m,2,892,1696,fa,4,male,28
EA_exp_1b,8,1,61,88,1,z,4,1837,511,miss,1,male,28
EA_exp_1b,8,1,62,59,1,m,4,1195,277,hit,6,male,28
EA_exp_1b,8,1,63,153,2,z,3,1578,646,cr,2,male,28
EA_exp_1b,8,1,64,137,2,m,4,846,261,fa,6,male,28
EA_exp_1b,8,1,65,141,2,z,2,1099,362,cr,3,male,28
EA_exp_1b,8,1,66,159,2,z,4,906,418,cr,1,male,28
EA_exp_1b,8,1,67,18,1,m,3,3153,734,hit,5,male,28
EA_exp_1b,8,1,68,164,2,z,3,1441,370,cr,2,male,28
EA_exp_1b,8,1,69,86,1,m,4,1603,398,hit,6,male,28
EA_exp_1b,8,1,70,134,2,z,3,4289,573,cr,2,male,28
EA_exp_1b,8,1,71,132,2,z,2,5573,658,cr,3,male,28
EA_exp_1b,8,1,72,151,2,z,4,1493,1831,cr,1,male,28
EA_exp_1b,8,1,73,149,2,z,4,1393,336,cr,1,male,28
EA_exp_1b,8,1,74,135,2,z,4,1221,381,cr,1,male,28
EA_exp_1b,8,1,75,191,2,z,2,1806,449,cr,3,male,28
EA_exp_1b,8,1,76,60,1,m,4,931,293,hit,6,male,28
EA_exp_1b,8,1,77,162,2,m,3,1466,153,fa,5,male,28
EA_exp_1b,8,1,78,102,2,z,2,1268,396,cr,3,male,28
EA_exp_1b,8,1,79,23,1,z,4,1579,359,miss,1,male,28
EA_exp_1b,8,1,80,40,1,m,4,1322,288,hit,6,male,28
EA_exp_1b,8,1,81,154,2,z,2,1298,427,cr,3,male,28
EA_exp_1b,8,1,82,99,1,m,4,1194,277,hit,6,male,28
EA_exp_1b,8,1,83,55,1,m,4,877,289,hit,6,male,28
EA_exp_1b,8,1,84,103,2,z,3,1415,1944,cr,2,male,28
EA_exp_1b,8,1,85,53,1,m,4,1066,251,hit,6,male,28
EA_exp_1b,8,1,86,155,2,m,4,817,267,fa,6,male,28
EA_exp_1b,8,1,87,41,1,z,3,1888,1231,miss,2,male,28
EA_exp_1b,8,1,88,42,1,m,4,1041,255,hit,6,male,28
EA_exp_1b,8,1,89,173,2,z,2,1125,2451,cr,3,male,28
EA_exp_1b,8,1,90,118,2,z,3,1858,1249,cr,2,male,28
EA_exp_1b,8,1,91,51,1,m,4,1313,262,hit,6,male,28
EA_exp_1b,8,1,92,4,1,m,3,1470,202,hit,5,male,28
EA_exp_1b,8,1,93,200,2,z,2,1428,405,cr,3,male,28
EA_exp_1b,8,1,94,157,2,z,3,7078,595,cr,2,male,28
EA_exp_1b,8,1,95,175,2,z,3,1135,890,cr,2,male,28
EA_exp_1b,8,1,96,15,1,z,3,2184,506,miss,2,male,28
EA_exp_1b,8,1,97,90,1,m,4,1465,198,hit,6,male,28
EA_exp_1b,8,1,98,161,2,z,3,1312,2084,cr,2,male,28
EA_exp_1b,8,1,99,107,2,m,1,2511,999,fa,4,male,28
EA_exp_1b,8,1,100,136,2,m,1,6161,436,fa,4,male,28
EA_exp_1b,8,1,101,139,2,z,2,2210,467,cr,3,male,28
EA_exp_1b,8,1,102,142,2,z,2,3733,1752,cr,3,male,28
EA_exp_1b,8,1,103,127,2,z,3,1360,822,cr,2,male,28
EA_exp_1b,8,1,104,114,2,m,4,1161,913,fa,6,male,28
EA_exp_1b,8,1,105,166,2,z,4,1679,548,cr,1,male,28
EA_exp_1b,8,1,106,66,1,m,4,1167,218,hit,6,male,28
EA_exp_1b,8,1,107,69,1,z,2,3749,1526,miss,3,male,28
EA_exp_1b,8,1,108,144,2,z,3,1334,671,cr,2,male,28
EA_exp_1b,8,1,109,22,1,m,3,2645,1606,hit,5,male,28
EA_exp_1b,8,1,110,116,2,z,2,2805,367,cr,3,male,28
EA_exp_1b,8,1,111,46,1,m,4,1972,253,hit,6,male,28
EA_exp_1b,8,1,112,196,2,m,3,1602,189,fa,5,male,28
EA_exp_1b,8,1,113,182,2,z,3,1062,294,cr,2,male,28
EA_exp_1b,8,1,114,9,1,m,4,971,222,hit,6,male,28
EA_exp_1b,8,1,115,7,1,m,4,903,284,hit,6,male,28
EA_exp_1b,8,1,116,43,1,m,4,1551,205,hit,6,male,28
EA_exp_1b,8,1,117,96,1,m,4,937,251,hit,6,male,28
EA_exp_1b,8,1,118,14,1,m,4,738,239,hit,6,male,28
EA_exp_1b,8,1,119,24,1,z,3,1814,935,miss,2,male,28
EA_exp_1b,8,1,120,176,2,z,2,1732,359,cr,3,male,28
EA_exp_1b,8,1,121,147,2,z,4,1547,998,cr,1,male,28
EA_exp_1b,8,1,122,17,1,m,1,2913,580,hit,4,male,28
EA_exp_1b,8,1,123,76,1,m,3,2016,824,hit,5,male,28
EA_exp_1b,8,1,124,189,2,z,3,2553,396,cr,2,male,28
EA_exp_1b,8,1,125,156,2,z,2,1706,322,cr,3,male,28
EA_exp_1b,8,1,126,48,1,z,2,2058,446,miss,3,male,28
EA_exp_1b,8,1,127,138,2,z,3,1692,485,cr,2,male,28
EA_exp_1b,8,1,128,177,2,z,1,5555,924,cr,3,male,28
EA_exp_1b,8,1,129,160,2,z,3,3272,1359,cr,2,male,28
EA_exp_1b,8,1,130,77,1,z,2,1388,317,miss,3,male,28
EA_exp_1b,8,1,131,180,2,m,3,4067,217,fa,5,male,28
EA_exp_1b,8,1,132,148,2,z,2,1407,323,cr,3,male,28
EA_exp_1b,8,1,133,50,1,m,2,2453,2191,hit,4,male,28
EA_exp_1b,8,1,134,184,2,z,2,3863,1526,cr,3,male,28
EA_exp_1b,8,1,135,8,1,m,3,2620,317,hit,5,male,28
EA_exp_1b,8,1,136,168,2,z,3,2526,965,cr,2,male,28
EA_exp_1b,8,1,137,44,1,z,3,1185,378,miss,2,male,28
EA_exp_1b,8,1,138,49,1,z,3,1117,378,miss,2,male,28
EA_exp_1b,8,1,139,119,2,z,3,909,385,cr,2,male,28
EA_exp_1b,8,1,140,121,2,z,3,916,392,cr,2,male,28
EA_exp_1b,8,1,141,172,2,z,3,761,420,cr,2,male,28
EA_exp_1b,8,1,142,131,2,z,4,2083,1899,cr,1,male,28
EA_exp_1b,8,1,143,30,1,z,3,943,517,miss,2,male,28
EA_exp_1b,8,1,144,199,2,z,4,1072,751,cr,1,male,28
EA_exp_1b,8,1,145,97,1,m,4,1137,287,hit,6,male,28
EA_exp_1b,8,1,146,2,1,z,1,1445,1012,miss,3,male,28
EA_exp_1b,8,1,147,79,1,z,2,1787,1168,miss,3,male,28
EA_exp_1b,8,1,148,39,1,m,3,1588,364,hit,5,male,28
EA_exp_1b,8,1,149,19,1,m,4,993,241,hit,6,male,28
EA_exp_1b,8,1,150,87,1,m,4,970,299,hit,6,male,28
EA_exp_1b,8,1,151,98,1,z,2,1569,1292,miss,3,male,28
EA_exp_1b,8,1,152,124,2,z,3,3081,712,cr,2,male,28
EA_exp_1b,8,1,153,6,1,m,4,1276,259,hit,6,male,28
EA_exp_1b,8,1,154,25,1,m,4,5160,293,hit,6,male,28
EA_exp_1b,8,1,155,83,1,m,4,1034,300,hit,6,male,28
EA_exp_1b,8,1,156,169,2,z,3,1745,437,cr,2,male,28
EA_exp_1b,8,1,157,5,1,z,3,4452,1580,miss,2,male,28
EA_exp_1b,8,1,158,54,1,m,2,2078,212,hit,4,male,28
EA_exp_1b,8,1,159,140,2,m,1,2428,182,fa,4,male,28
EA_exp_1b,8,1,160,198,2,z,3,1537,1308,cr,2,male,28
EA_exp_1b,8,1,161,91,1,m,4,922,302,hit,6,male,28
EA_exp_1b,8,1,162,112,2,z,3,1298,890,cr,2,male,28
EA_exp_1b,8,1,163,45,1,m,4,1432,247,hit,6,male,28
EA_exp_1b,8,1,164,143,2,m,2,4128,467,fa,4,male,28
EA_exp_1b,8,1,165,13,1,m,3,2227,242,hit,5,male,28
EA_exp_1b,8,1,166,120,2,z,2,2042,353,cr,3,male,28
EA_exp_1b,8,1,167,94,1,z,3,1999,686,miss,2,male,28
EA_exp_1b,8,1,168,146,2,z,3,1539,1503,cr,2,male,28
EA_exp_1b,8,1,169,187,2,m,3,1238,381,fa,5,male,28
EA_exp_1b,8,1,170,188,2,z,3,1569,746,cr,2,male,28
EA_exp_1b,8,1,171,117,2,z,2,1325,851,cr,3,male,28
EA_exp_1b,8,1,172,31,1,z,2,3377,1316,miss,3,male,28
EA_exp_1b,8,1,173,111,2,m,2,3154,236,fa,4,male,28
EA_exp_1b,8,1,174,28,1,z,3,1396,1222,miss,2,male,28
EA_exp_1b,8,1,175,95,1,m,4,1352,170,hit,6,male,28
EA_exp_1b,8,1,176,167,2,z,3,3345,584,cr,2,male,28
EA_exp_1b,8,1,177,32,1,z,2,1551,332,miss,3,male,28
EA_exp_1b,8,1,178,130,2,z,1,2207,2210,cr,3,male,28
EA_exp_1b,8,1,179,62,1,m,4,2221,204,hit,6,male,28
EA_exp_1b,8,1,180,20,1,m,4,1156,176,hit,6,male,28
EA_exp_1b,8,1,181,16,1,z,2,2789,612,miss,3,male,28
EA_exp_1b,8,1,182,38,1,m,3,3374,847,hit,5,male,28
EA_exp_1b,8,1,183,113,2,z,3,1504,541,cr,2,male,28
EA_exp_1b,8,1,184,12,1,z,4,1834,393,miss,1,male,28
EA_exp_1b,8,1,185,181,2,z,2,3546,3478,cr,3,male,28
EA_exp_1b,8,1,186,109,2,z,3,1343,400,cr,2,male,28
EA_exp_1b,8,1,187,64,1,z,3,1457,784,miss,2,male,28
EA_exp_1b,8,1,188,190,2,z,3,6596,450,cr,2,male,28
EA_exp_1b,8,1,189,122,2,z,4,1026,387,cr,1,male,28
EA_exp_1b,8,1,190,63,1,m,4,1173,224,hit,6,male,28
EA_exp_1b,8,1,191,27,1,z,1,3254,814,miss,3,male,28
EA_exp_1b,8,1,192,163,2,z,2,1502,462,cr,3,male,28
EA_exp_1b,8,1,193,3,1,m,4,1308,178,hit,6,male,28
EA_exp_1b,8,1,194,194,2,m,4,1755,385,fa,6,male,28
EA_exp_1b,8,1,195,126,2,m,3,1456,224,fa,5,male,28
EA_exp_1b,8,1,196,70,1,m,4,2010,322,hit,6,male,28
EA_exp_1b,8,1,197,174,2,m,1,3639,254,fa,4,male,28
EA_exp_1b,8,1,198,179,2,z,2,3348,1017,cr,3,male,28
EA_exp_1b,8,1,199,34,1,z,4,1360,659,miss,1,male,28
EA_exp_1b,8,1,200,57,1,m,4,1098,345,hit,6,male,28
EA_exp_1b,9,1,1,111,2,m,3,2125,2664,fa,5,female,20
EA_exp_1b,9,1,2,158,2,z,2,3209,1096,cr,3,female,20
EA_exp_1b,9,1,3,29,1,m,3,2211,1006,hit,5,female,20
EA_exp_1b,9,1,4,24,1,m,3,885,1238,hit,5,female,20
EA_exp_1b,9,1,5,193,2,z,1,3213,838,cr,3,female,20
EA_exp_1b,9,1,6,34,1,m,2,3093,1123,hit,4,female,20
EA_exp_1b,9,1,7,153,2,z,3,1827,1081,cr,2,female,20
EA_exp_1b,9,1,8,121,2,z,2,2414,1256,cr,3,female,20
EA_exp_1b,9,1,9,55,1,m,2,1381,1705,hit,4,female,20
EA_exp_1b,9,1,10,85,1,m,4,1936,1490,hit,6,female,20
EA_exp_1b,9,1,11,93,1,m,1,3496,1142,hit,4,female,20
EA_exp_1b,9,1,12,45,1,z,3,1791,1387,miss,2,female,20
EA_exp_1b,9,1,13,44,1,m,4,1887,1323,hit,6,female,20
EA_exp_1b,9,1,14,4,1,z,4,1767,1250,miss,1,female,20
EA_exp_1b,9,1,15,92,1,z,2,2039,809,miss,3,female,20
EA_exp_1b,9,1,16,39,1,z,1,1609,739,miss,3,female,20
EA_exp_1b,9,1,17,8,1,m,3,1381,1113,hit,5,female,20
EA_exp_1b,9,1,18,88,1,m,3,1424,807,hit,5,female,20
EA_exp_1b,9,1,19,190,2,m,2,1557,819,fa,4,female,20
EA_exp_1b,9,1,20,169,2,z,3,1235,1396,cr,2,female,20
EA_exp_1b,9,1,21,148,2,m,1,2083,436,fa,4,female,20
EA_exp_1b,9,1,22,82,1,m,3,1444,787,hit,5,female,20
EA_exp_1b,9,1,23,187,2,z,3,1335,1225,cr,2,female,20
EA_exp_1b,9,1,24,163,2,z,2,1488,1142,cr,3,female,20
EA_exp_1b,9,1,25,1,1,z,2,5281,1121,miss,3,female,20
EA_exp_1b,9,1,26,156,2,m,2,4492,963,fa,4,female,20
EA_exp_1b,9,1,27,56,1,m,4,1071,893,hit,6,female,20
EA_exp_1b,9,1,28,141,2,z,1,1345,727,cr,3,female,20
EA_exp_1b,9,1,29,98,1,m,2,1114,1056,hit,4,female,20
EA_exp_1b,9,1,30,18,1,m,4,868,662,hit,6,female,20
EA_exp_1b,9,1,31,140,2,z,3,2166,1136,cr,2,female,20
EA_exp_1b,9,1,32,47,1,z,3,3334,1232,miss,2,female,20
EA_exp_1b,9,1,33,75,1,z,4,2094,1366,miss,1,female,20
EA_exp_1b,9,1,34,50,1,m,3,1543,1045,hit,5,female,20
EA_exp_1b,9,1,35,42,1,m,3,1394,702,hit,5,female,20
EA_exp_1b,9,1,36,59,1,z,4,1458,953,miss,1,female,20
EA_exp_1b,9,1,37,27,1,m,4,2855,413,hit,6,female,20
EA_exp_1b,9,1,38,2,1,z,2,1630,694,miss,3,female,20
EA_exp_1b,9,1,39,188,2,m,2,1314,1449,fa,4,female,20
EA_exp_1b,9,1,40,99,1,z,1,1807,1000,miss,3,female,20
EA_exp_1b,9,1,41,61,1,z,3,3236,1266,miss,2,female,20
EA_exp_1b,9,1,42,107,2,z,1,1515,894,cr,3,female,20
EA_exp_1b,9,1,43,49,1,z,4,1430,1067,miss,1,female,20
EA_exp_1b,9,1,44,171,2,z,2,2675,672,cr,3,female,20
EA_exp_1b,9,1,45,89,1,m,4,918,732,hit,6,female,20
EA_exp_1b,9,1,46,83,1,z,2,1707,734,miss,3,female,20
EA_exp_1b,9,1,47,183,2,z,1,1391,819,cr,3,female,20
EA_exp_1b,9,1,48,115,2,m,1,1836,779,fa,4,female,20
EA_exp_1b,9,1,49,79,1,m,3,1814,797,hit,5,female,20
EA_exp_1b,9,1,50,101,2,m,1,4582,802,fa,4,female,20
EA_exp_1b,9,1,51,21,1,m,3,1793,709,hit,5,female,20
EA_exp_1b,9,1,52,14,1,m,4,996,540,hit,6,female,20
EA_exp_1b,9,1,53,105,2,z,4,1302,645,cr,1,female,20
EA_exp_1b,9,1,54,65,1,z,3,2484,762,miss,2,female,20
EA_exp_1b,9,1,55,149,2,z,1,3035,301,cr,3,female,20
EA_exp_1b,9,1,56,154,2,m,1,1451,538,fa,4,female,20
EA_exp_1b,9,1,57,7,1,z,2,2888,869,miss,3,female,20
EA_exp_1b,9,1,58,142,2,m,3,1138,863,fa,5,female,20
EA_exp_1b,9,1,59,94,1,m,1,2000,1351,hit,4,female,20
EA_exp_1b,9,1,60,78,1,z,2,4217,635,miss,3,female,20
EA_exp_1b,9,1,61,41,1,z,3,2413,629,miss,2,female,20
EA_exp_1b,9,1,62,25,1,m,3,1339,641,hit,5,female,20
EA_exp_1b,9,1,63,139,2,z,4,1454,703,cr,1,female,20
EA_exp_1b,9,1,64,3,1,m,4,898,601,hit,6,female,20
EA_exp_1b,9,1,65,68,1,z,3,1138,3312,miss,2,female,20
EA_exp_1b,9,1,66,108,2,m,4,1242,1259,fa,6,female,20
EA_exp_1b,9,1,67,46,1,m,4,898,481,hit,6,female,20
EA_exp_1b,9,1,68,182,2,m,1,645,1806,fa,4,female,20
EA_exp_1b,9,1,69,100,1,z,3,1658,1495,miss,2,female,20
EA_exp_1b,9,1,70,11,1,z,2,1371,711,miss,3,female,20
EA_exp_1b,9,1,71,144,2,z,1,3394,525,cr,3,female,20
EA_exp_1b,9,1,72,113,2,m,2,2405,1211,fa,4,female,20
EA_exp_1b,9,1,73,186,2,z,1,4654,596,cr,3,female,20
EA_exp_1b,9,1,74,192,2,z,3,1160,713,cr,2,female,20
EA_exp_1b,9,1,75,198,2,z,2,1176,584,cr,3,female,20
EA_exp_1b,9,1,76,162,2,z,4,2086,1383,cr,1,female,20
EA_exp_1b,9,1,77,91,1,m,2,6529,950,hit,4,female,20
EA_exp_1b,9,1,78,146,2,m,2,5183,1331,fa,4,female,20
EA_exp_1b,9,1,79,80,1,m,3,775,674,hit,5,female,20
EA_exp_1b,9,1,80,131,2,z,3,1264,751,cr,2,female,20
EA_exp_1b,9,1,81,124,2,z,2,1388,804,cr,3,female,20
EA_exp_1b,9,1,82,72,1,m,2,4514,370,hit,4,female,20
EA_exp_1b,9,1,83,189,2,z,3,2019,446,cr,2,female,20
EA_exp_1b,9,1,84,152,2,z,2,1732,946,cr,3,female,20
EA_exp_1b,9,1,85,71,1,m,2,3934,666,hit,4,female,20
EA_exp_1b,9,1,86,40,1,m,3,1217,482,hit,5,female,20
EA_exp_1b,9,1,87,32,1,z,3,1862,583,miss,2,female,20
EA_exp_1b,9,1,88,150,2,z,2,7006,434,cr,3,female,20
EA_exp_1b,9,1,89,67,1,m,4,896,855,hit,6,female,20
EA_exp_1b,9,1,90,119,2,z,3,1759,505,cr,2,female,20
EA_exp_1b,9,1,91,145,2,z,3,1879,724,cr,2,female,20
EA_exp_1b,9,1,92,200,2,z,2,1306,583,cr,3,female,20
EA_exp_1b,9,1,93,70,1,m,2,1571,500,hit,4,female,20
EA_exp_1b,9,1,94,135,2,m,1,1217,1594,fa,4,female,20
EA_exp_1b,9,1,95,165,2,z,2,2044,643,cr,3,female,20
EA_exp_1b,9,1,96,97,1,m,2,1623,331,hit,4,female,20
EA_exp_1b,9,1,97,90,1,m,4,1386,666,hit,6,female,20
EA_exp_1b,9,1,98,161,2,z,3,2257,824,cr,2,female,20
EA_exp_1b,9,1,99,66,1,z,2,2176,962,miss,3,female,20
EA_exp_1b,9,1,100,110,2,z,1,1495,458,cr,3,female,20
EA_exp_1b,9,1,101,57,1,m,3,2996,796,hit,5,female,20
EA_exp_1b,9,1,102,31,1,m,3,2037,782,hit,5,female,20
EA_exp_1b,9,1,103,151,2,z,4,5817,561,cr,1,female,20
EA_exp_1b,9,1,104,127,2,m,2,5186,743,fa,4,female,20
EA_exp_1b,9,1,105,143,2,z,3,2411,834,cr,2,female,20
EA_exp_1b,9,1,106,177,2,z,3,3200,1141,cr,2,female,20
EA_exp_1b,9,1,107,30,1,z,1,1457,895,miss,3,female,20
EA_exp_1b,9,1,108,51,1,z,2,2924,897,miss,3,female,20
EA_exp_1b,9,1,109,9,1,m,3,4508,996,hit,5,female,20
EA_exp_1b,9,1,110,95,1,z,2,2129,858,miss,3,female,20
EA_exp_1b,9,1,111,63,1,m,4,3443,568,hit,6,female,20
EA_exp_1b,9,1,112,114,2,m,2,2426,211,fa,4,female,20
EA_exp_1b,9,1,113,33,1,m,4,883,435,hit,6,female,20
EA_exp_1b,9,1,114,96,1,m,3,1588,1149,hit,5,female,20
EA_exp_1b,9,1,115,180,2,z,3,2000,1394,cr,2,female,20
EA_exp_1b,9,1,116,157,2,m,2,1908,873,fa,4,female,20
EA_exp_1b,9,1,117,137,2,z,3,1293,1165,cr,2,female,20
EA_exp_1b,9,1,118,194,2,z,3,1632,472,cr,2,female,20
EA_exp_1b,9,1,119,123,2,z,2,936,803,cr,3,female,20
EA_exp_1b,9,1,120,6,1,z,3,2687,474,miss,2,female,20
EA_exp_1b,9,1,121,103,2,z,3,5110,2237,cr,2,female,20
EA_exp_1b,9,1,122,122,2,m,3,3101,448,fa,5,female,20
EA_exp_1b,9,1,123,185,2,z,2,1689,328,cr,3,female,20
EA_exp_1b,9,1,124,84,1,m,4,687,698,hit,6,female,20
EA_exp_1b,9,1,125,104,2,z,3,1433,383,cr,2,female,20
EA_exp_1b,9,1,126,128,2,m,1,2137,1318,fa,4,female,20
EA_exp_1b,9,1,127,69,1,m,4,1445,826,hit,6,female,20
EA_exp_1b,9,1,128,12,1,m,4,933,615,hit,6,female,20
EA_exp_1b,9,1,129,43,1,m,4,667,494,hit,6,female,20
EA_exp_1b,9,1,130,178,2,z,2,2077,547,cr,3,female,20
EA_exp_1b,9,1,131,81,1,z,3,1689,957,miss,2,female,20
EA_exp_1b,9,1,132,199,2,z,3,1703,630,cr,2,female,20
EA_exp_1b,9,1,133,117,2,z,2,1028,1502,cr,3,female,20
EA_exp_1b,9,1,134,53,1,m,3,1118,695,hit,5,female,20
EA_exp_1b,9,1,135,52,1,z,2,2116,370,miss,3,female,20
EA_exp_1b,9,1,136,181,2,z,1,1344,935,cr,3,female,20
EA_exp_1b,9,1,137,5,1,m,1,1759,848,hit,4,female,20
EA_exp_1b,9,1,138,106,2,m,2,2536,323,fa,4,female,20
EA_exp_1b,9,1,139,197,2,m,2,2745,371,fa,4,female,20
EA_exp_1b,9,1,140,176,2,z,3,1115,1187,cr,2,female,20
EA_exp_1b,9,1,141,120,2,z,2,8760,736,cr,3,female,20
EA_exp_1b,9,1,142,77,1,m,3,992,716,hit,5,female,20
EA_exp_1b,9,1,143,196,2,z,2,2107,382,cr,3,female,20
EA_exp_1b,9,1,144,35,1,m,4,4402,418,hit,6,female,20
EA_exp_1b,9,1,145,166,2,z,3,2187,486,cr,2,female,20
EA_exp_1b,9,1,146,159,2,z,2,3780,758,cr,3,female,20
EA_exp_1b,9,1,147,76,1,z,3,16176,770,miss,2,female,20
EA_exp_1b,9,1,148,22,1,m,4,1240,558,hit,6,female,20
EA_exp_1b,9,1,149,184,2,z,3,1285,398,cr,2,female,20
EA_exp_1b,9,1,150,37,1,z,2,3022,656,miss,3,female,20
EA_exp_1b,9,1,151,54,1,z,2,1267,478,miss,3,female,20
EA_exp_1b,9,1,152,160,2,z,2,1110,441,cr,3,female,20
EA_exp_1b,9,1,153,38,1,m,3,1506,408,hit,5,female,20
EA_exp_1b,9,1,154,116,2,m,3,1268,350,fa,5,female,20
EA_exp_1b,9,1,155,136,2,m,1,794,692,fa,4,female,20
EA_exp_1b,9,1,156,133,2,z,1,1539,453,cr,3,female,20
EA_exp_1b,9,1,157,125,2,m,3,3106,306,fa,5,female,20
EA_exp_1b,9,1,158,118,2,z,1,2422,431,cr,3,female,20
EA_exp_1b,9,1,159,86,1,z,2,3121,333,miss,3,female,20
EA_exp_1b,9,1,160,195,2,m,2,7627,2321,fa,4,female,20
EA_exp_1b,9,1,161,36,1,z,3,1358,537,miss,2,female,20
EA_exp_1b,9,1,162,28,1,z,2,1571,519,miss,3,female,20
EA_exp_1b,9,1,163,109,2,z,4,1224,1403,cr,1,female,20
EA_exp_1b,9,1,164,138,2,z,2,1318,1354,cr,3,female,20
EA_exp_1b,9,1,165,64,1,m,4,1904,298,hit,6,female,20
EA_exp_1b,9,1,166,19,1,z,2,1624,464,miss,3,female,20
EA_exp_1b,9,1,167,179,2,z,2,3994,481,cr,3,female,20
EA_exp_1b,9,1,168,112,2,m,3,1282,662,fa,5,female,20
EA_exp_1b,9,1,169,129,2,m,4,1719,890,fa,6,female,20
EA_exp_1b,9,1,170,13,1,z,3,1698,733,miss,2,female,20
EA_exp_1b,9,1,171,17,1,z,2,1820,346,miss,3,female,20
EA_exp_1b,9,1,172,74,1,m,3,918,410,hit,5,female,20
EA_exp_1b,9,1,173,168,2,z,3,1629,596,cr,2,female,20
EA_exp_1b,9,1,174,73,1,m,4,1013,895,hit,6,female,20
EA_exp_1b,9,1,175,174,2,z,2,1819,357,cr,3,female,20
EA_exp_1b,9,1,176,164,2,m,3,1335,316,fa,5,female,20
EA_exp_1b,9,1,177,175,2,m,2,1299,1134,fa,4,female,20
EA_exp_1b,9,1,178,60,1,z,3,2165,397,miss,2,female,20
EA_exp_1b,9,1,179,126,2,z,3,1711,364,cr,2,female,20
EA_exp_1b,9,1,180,26,1,z,3,2040,951,miss,2,female,20
EA_exp_1b,9,1,181,58,1,z,1,2348,806,miss,3,female,20
EA_exp_1b,9,1,182,10,1,z,2,2303,317,miss,3,female,20
EA_exp_1b,9,1,183,134,2,z,3,11970,1837,cr,2,female,20
EA_exp_1b,9,1,184,87,1,z,1,1461,315,miss,3,female,20
EA_exp_1b,9,1,185,170,2,m,2,1870,279,fa,4,female,20
EA_exp_1b,9,1,186,16,1,m,4,1171,1072,hit,6,female,20
EA_exp_1b,9,1,187,102,2,m,3,7727,371,fa,5,female,20
EA_exp_1b,9,1,188,172,2,z,2,2471,252,cr,3,female,20
EA_exp_1b,9,1,189,23,1,z,3,1933,487,miss,2,female,20
EA_exp_1b,9,1,190,147,2,z,1,3307,1098,cr,3,female,20
EA_exp_1b,9,1,191,48,1,z,3,2478,894,miss,2,female,20
EA_exp_1b,9,1,192,132,2,m,2,1284,594,fa,4,female,20
EA_exp_1b,9,1,193,20,1,m,1,2082,778,hit,4,female,20
EA_exp_1b,9,1,194,167,2,z,3,1310,801,cr,2,female,20
EA_exp_1b,9,1,195,155,2,m,3,1330,327,fa,5,female,20
EA_exp_1b,9,1,196,62,1,m,4,1652,355,hit,6,female,20
EA_exp_1b,9,1,197,130,2,m,1,1965,225,fa,4,female,20
EA_exp_1b,9,1,198,191,2,z,2,1739,445,cr,3,female,20
EA_exp_1b,9,1,199,15,1,z,3,1427,541,miss,2,female,20
EA_exp_1b,9,1,200,173,2,z,3,1610,474,cr,2,female,20
EA_exp_1b,10,1,1,14,1,z,3,3718,5720,miss,2,female,18
EA_exp_1b,10,1,2,11,1,m,4,2693,2738,hit,6,female,18
EA_exp_1b,10,1,3,129,2,z,3,1459,3573,cr,2,female,18
EA_exp_1b,10,1,4,60,1,m,4,1528,1603,hit,6,female,18
EA_exp_1b,10,1,5,102,2,z,4,2292,1058,cr,1,female,18
EA_exp_1b,10,1,6,157,2,z,2,3367,1772,cr,3,female,18
EA_exp_1b,10,1,7,119,2,z,3,2742,2098,cr,2,female,18
EA_exp_1b,10,1,8,105,2,z,3,1486,1438,cr,2,female,18
EA_exp_1b,10,1,9,74,1,m,3,2536,2330,hit,5,female,18
EA_exp_1b,10,1,10,179,2,z,3,2364,1242,cr,2,female,18
EA_exp_1b,10,1,11,128,2,z,2,7077,888,cr,3,female,18
EA_exp_1b,10,1,12,34,1,m,4,1572,1935,hit,6,female,18
EA_exp_1b,10,1,13,67,1,m,4,1878,993,hit,6,female,18
EA_exp_1b,10,1,14,171,2,z,3,1275,1377,cr,2,female,18
EA_exp_1b,10,1,15,192,2,z,4,2555,1215,cr,1,female,18
EA_exp_1b,10,1,16,168,2,m,2,3947,988,fa,4,female,18
EA_exp_1b,10,1,17,62,1,m,3,2115,730,hit,5,female,18
EA_exp_1b,10,1,18,9,1,m,4,6189,1312,hit,6,female,18
EA_exp_1b,10,1,19,95,1,m,4,1250,1524,hit,6,female,18
EA_exp_1b,10,1,20,153,2,z,4,1782,728,cr,1,female,18
EA_exp_1b,10,1,21,35,1,m,4,1870,430,hit,6,female,18
EA_exp_1b,10,1,22,122,2,z,3,1342,882,cr,2,female,18
EA_exp_1b,10,1,23,72,1,m,4,1138,829,hit,6,female,18
EA_exp_1b,10,1,24,44,1,m,4,2361,1031,hit,6,female,18
EA_exp_1b,10,1,25,51,1,z,2,2657,927,miss,3,female,18
EA_exp_1b,10,1,26,84,1,m,4,1371,687,hit,6,female,18
EA_exp_1b,10,1,27,144,2,z,4,1893,1057,cr,1,female,18
EA_exp_1b,10,1,28,87,1,m,4,1209,786,hit,6,female,18
EA_exp_1b,10,1,29,173,2,z,4,1330,936,cr,1,female,18
EA_exp_1b,10,1,30,143,2,z,3,1348,791,cr,2,female,18
EA_exp_1b,10,1,31,93,1,m,4,1762,764,hit,6,female,18
EA_exp_1b,10,1,32,25,1,m,4,1311,628,hit,6,female,18
EA_exp_1b,10,1,33,152,2,z,4,1195,1159,cr,1,female,18
EA_exp_1b,10,1,34,120,2,z,3,2377,884,cr,2,female,18
EA_exp_1b,10,1,35,81,1,m,3,3521,575,hit,5,female,18
EA_exp_1b,10,1,36,8,1,m,4,1289,623,hit,6,female,18
EA_exp_1b,10,1,37,142,2,z,3,2215,1832,cr,2,female,18
EA_exp_1b,10,1,38,29,1,m,4,1327,788,hit,6,female,18
EA_exp_1b,10,1,39,191,2,z,2,2708,948,cr,3,female,18
EA_exp_1b,10,1,40,24,1,m,3,4077,837,hit,5,female,18
EA_exp_1b,10,1,41,98,1,m,4,838,734,hit,6,female,18
EA_exp_1b,10,1,42,68,1,m,3,3344,1461,hit,5,female,18
EA_exp_1b,10,1,43,18,1,m,4,826,852,hit,6,female,18
EA_exp_1b,10,1,44,59,1,m,4,661,722,hit,6,female,18
EA_exp_1b,10,1,45,109,2,z,3,1300,796,cr,2,female,18
EA_exp_1b,10,1,46,97,1,m,4,928,594,hit,6,female,18
EA_exp_1b,10,1,47,6,1,m,4,876,754,hit,6,female,18
EA_exp_1b,10,1,48,166,2,z,4,1145,640,cr,1,female,18
EA_exp_1b,10,1,49,30,1,m,4,1668,574,hit,6,female,18
EA_exp_1b,10,1,50,65,1,m,4,4567,1148,hit,6,female,18
EA_exp_1b,10,1,51,151,2,z,2,7535,1308,cr,3,female,18
EA_exp_1b,10,1,52,7,1,m,3,6217,298,hit,5,female,18
EA_exp_1b,10,1,53,99,1,m,4,7407,641,hit,6,female,18
EA_exp_1b,10,1,54,145,2,z,3,1848,552,cr,2,female,18
EA_exp_1b,10,1,55,136,2,z,2,1475,1026,cr,3,female,18
EA_exp_1b,10,1,56,106,2,m,4,3338,382,fa,6,female,18
EA_exp_1b,10,1,57,31,1,m,4,1712,406,hit,6,female,18
EA_exp_1b,10,1,58,121,2,z,3,1783,904,cr,2,female,18
EA_exp_1b,10,1,59,54,1,m,4,1030,534,hit,6,female,18
EA_exp_1b,10,1,60,161,2,z,4,979,788,cr,1,female,18
EA_exp_1b,10,1,61,188,2,z,4,2182,680,cr,1,female,18
EA_exp_1b,10,1,62,177,2,z,4,1006,1806,cr,1,female,18
EA_exp_1b,10,1,63,27,1,m,4,2860,1136,hit,6,female,18
EA_exp_1b,10,1,64,19,1,m,3,1476,592,hit,5,female,18
EA_exp_1b,10,1,65,134,2,z,4,1002,861,cr,1,female,18
EA_exp_1b,10,1,66,2,1,m,3,4540,480,hit,5,female,18
EA_exp_1b,10,1,67,71,1,m,4,1215,615,hit,6,female,18
EA_exp_1b,10,1,68,83,1,m,4,815,585,hit,6,female,18
EA_exp_1b,10,1,69,141,2,m,1,913,3080,fa,4,female,18
EA_exp_1b,10,1,70,33,1,m,3,910,643,hit,5,female,18
EA_exp_1b,10,1,71,110,2,m,3,3655,721,fa,5,female,18
EA_exp_1b,10,1,72,26,1,m,4,855,1038,hit,6,female,18
EA_exp_1b,10,1,73,100,1,m,4,756,880,hit,6,female,18
EA_exp_1b,10,1,74,90,1,m,4,1164,1018,hit,6,female,18
EA_exp_1b,10,1,75,172,2,z,2,13139,1070,cr,3,female,18
EA_exp_1b,10,1,76,49,1,m,4,708,946,hit,6,female,18
EA_exp_1b,10,1,77,176,2,z,3,2234,814,cr,2,female,18
EA_exp_1b,10,1,78,52,1,m,3,3725,1363,hit,5,female,18
EA_exp_1b,10,1,79,96,1,m,4,1647,886,hit,6,female,18
EA_exp_1b,10,1,80,10,1,m,4,692,1137,hit,6,female,18
EA_exp_1b,10,1,81,137,2,z,4,2374,1279,cr,1,female,18
EA_exp_1b,10,1,82,186,2,z,4,1501,1307,cr,1,female,18
EA_exp_1b,10,1,83,170,2,z,3,1862,615,cr,2,female,18
EA_exp_1b,10,1,84,92,1,m,4,1039,624,hit,6,female,18
EA_exp_1b,10,1,85,58,1,m,2,15778,778,hit,4,female,18
EA_exp_1b,10,1,86,113,2,z,4,1086,938,cr,1,female,18
EA_exp_1b,10,1,87,73,1,m,4,1669,893,hit,6,female,18
EA_exp_1b,10,1,88,183,2,z,3,2699,985,cr,2,female,18
EA_exp_1b,10,1,89,89,1,m,4,1314,552,hit,6,female,18
EA_exp_1b,10,1,90,111,2,z,4,1440,722,cr,1,female,18
EA_exp_1b,10,1,91,112,2,z,4,1349,730,cr,1,female,18
EA_exp_1b,10,1,92,69,1,m,4,911,580,hit,6,female,18
EA_exp_1b,10,1,93,16,1,z,3,1294,675,miss,2,female,18
EA_exp_1b,10,1,94,167,2,z,4,1402,587,cr,1,female,18
EA_exp_1b,10,1,95,195,2,z,2,2526,585,cr,3,female,18
EA_exp_1b,10,1,96,174,2,z,3,1380,566,cr,2,female,18
EA_exp_1b,10,1,97,118,2,z,4,1025,688,cr,1,female,18
EA_exp_1b,10,1,98,101,2,z,2,2918,1052,cr,3,female,18
EA_exp_1b,10,1,99,70,1,m,4,1058,546,hit,6,female,18
EA_exp_1b,10,1,100,184,2,z,3,2173,560,cr,2,female,18
EA_exp_1b,10,1,101,185,2,z,2,1755,479,cr,3,female,18
EA_exp_1b,10,1,102,126,2,z,3,2859,756,cr,2,female,18
EA_exp_1b,10,1,103,199,2,z,2,2373,1585,cr,3,female,18
EA_exp_1b,10,1,104,165,2,z,2,2243,835,cr,3,female,18
EA_exp_1b,10,1,105,181,2,z,4,1508,943,cr,1,female,18
EA_exp_1b,10,1,106,159,2,z,4,1177,757,cr,1,female,18
EA_exp_1b,10,1,107,57,1,m,4,1127,420,hit,6,female,18
EA_exp_1b,10,1,108,169,2,z,4,1494,946,cr,1,female,18
EA_exp_1b,10,1,109,198,2,z,3,1999,1385,cr,2,female,18
EA_exp_1b,10,1,110,23,1,m,4,1153,478,hit,6,female,18
EA_exp_1b,10,1,111,146,2,z,4,1818,701,cr,1,female,18
EA_exp_1b,10,1,112,189,2,z,4,1857,560,cr,1,female,18
EA_exp_1b,10,1,113,21,1,m,4,1564,327,hit,6,female,18
EA_exp_1b,10,1,114,75,1,m,4,1033,395,hit,6,female,18
EA_exp_1b,10,1,115,124,2,z,4,1278,818,cr,1,female,18
EA_exp_1b,10,1,116,64,1,m,4,1202,540,hit,6,female,18
EA_exp_1b,10,1,117,1,1,m,4,1207,451,hit,6,female,18
EA_exp_1b,10,1,118,50,1,m,3,3009,866,hit,5,female,18
EA_exp_1b,10,1,119,5,1,m,4,2017,361,hit,6,female,18
EA_exp_1b,10,1,120,116,2,z,4,1213,582,cr,1,female,18
EA_exp_1b,10,1,121,190,2,z,3,3369,547,cr,2,female,18
EA_exp_1b,10,1,122,103,2,z,2,2528,882,cr,3,female,18
EA_exp_1b,10,1,123,163,2,z,2,2273,1087,cr,3,female,18
EA_exp_1b,10,1,124,197,2,z,3,1861,579,cr,2,female,18
EA_exp_1b,10,1,125,117,2,z,3,1278,836,cr,2,female,18
EA_exp_1b,10,1,126,86,1,m,3,1122,592,hit,5,female,18
EA_exp_1b,10,1,127,135,2,z,4,2138,734,cr,1,female,18
EA_exp_1b,10,1,128,77,1,m,2,2915,374,hit,4,female,18
EA_exp_1b,10,1,129,150,2,z,2,3912,551,cr,3,female,18
EA_exp_1b,10,1,130,125,2,z,2,1936,525,cr,3,female,18
EA_exp_1b,10,1,131,115,2,z,3,1770,733,cr,2,female,18
EA_exp_1b,10,1,132,123,2,z,3,1742,821,cr,2,female,18
EA_exp_1b,10,1,133,162,2,z,3,4324,466,cr,2,female,18
EA_exp_1b,10,1,134,85,1,m,4,1907,398,hit,6,female,18
EA_exp_1b,10,1,135,20,1,m,4,2319,253,hit,6,female,18
EA_exp_1b,10,1,136,88,1,m,4,1874,226,hit,6,female,18
EA_exp_1b,10,1,137,131,2,z,4,1625,835,cr,1,female,18
EA_exp_1b,10,1,138,47,1,m,4,1072,369,hit,6,female,18
EA_exp_1b,10,1,139,3,1,m,4,1221,412,hit,6,female,18
EA_exp_1b,10,1,140,63,1,m,4,1147,345,hit,6,female,18
EA_exp_1b,10,1,141,158,2,z,4,1487,443,cr,1,female,18
EA_exp_1b,10,1,142,164,2,z,4,1577,309,cr,1,female,18
EA_exp_1b,10,1,143,48,1,m,4,1372,189,hit,6,female,18
EA_exp_1b,10,1,144,149,2,z,4,1207,351,cr,1,female,18
EA_exp_1b,10,1,145,61,1,m,4,2626,195,hit,6,female,18
EA_exp_1b,10,1,146,66,1,m,4,1438,220,hit,6,female,18
EA_exp_1b,10,1,147,187,2,z,2,2053,909,cr,3,female,18
EA_exp_1b,10,1,148,55,1,m,4,1340,206,hit,6,female,18
EA_exp_1b,10,1,149,194,2,z,3,1847,679,cr,2,female,18
EA_exp_1b,10,1,150,41,1,m,4,1242,181,hit,6,female,18
EA_exp_1b,10,1,151,107,2,z,4,1346,419,cr,1,female,18
EA_exp_1b,10,1,152,76,1,m,3,2021,572,hit,5,female,18
EA_exp_1b,10,1,153,154,2,z,3,2741,1442,cr,2,female,18
