exp,idx,cbcond,trial,stimID,cond,KP_zm,KP_conf,RT_zm,RT_conf,hmfc,rating16,sex_kp_mfor,age_kp,studresp,stud_jud,presented
EA_exp_2,1,1,1,151,2,m,3,4591,2705,fa,5,female,19,NA,NA,NA
EA_exp_2,1,1,2,126,2,z,4,2023,2927,cr,1,female,19,NA,NA,NA
EA_exp_2,1,1,3,167,2,z,3,3833,2204,cr,2,female,19,NA,NA,NA
EA_exp_2,1,1,4,150,2,z,4,2114,2634,cr,1,female,19,NA,NA,NA
EA_exp_2,1,1,5,39,1,m,4,2034,1353,hit,6,female,19,q,older,1
EA_exp_2,1,1,6,22,1,z,4,3365,1334,miss,1,female,19,q,older,1
EA_exp_2,1,1,7,26,1,m,4,2708,2319,hit,6,female,19,q,older,1
EA_exp_2,1,1,8,4,1,m,4,1940,1311,hit,6,female,19,p,younger,1
EA_exp_2,1,1,9,68,1,m,4,1516,1226,hit,6,female,19,q,older,1
EA_exp_2,1,1,10,149,2,z,2,2233,1386,cr,3,female,19,NA,NA,NA
EA_exp_2,1,1,11,143,2,z,4,2052,2795,cr,1,female,19,NA,NA,NA
EA_exp_2,1,1,12,3,1,z,2,1679,1123,miss,3,female,19,p,younger,1
EA_exp_2,1,1,13,61,1,m,4,1414,969,hit,6,female,19,p,younger,1
EA_exp_2,1,1,14,49,1,m,4,1312,1240,hit,6,female,19,p,younger,1
EA_exp_2,1,1,15,98,1,m,4,1705,669,hit,6,female,19,q,older,1
EA_exp_2,1,1,16,34,1,m,2,2623,948,hit,4,female,19,p,younger,1
EA_exp_2,1,1,17,128,2,m,3,1263,1671,fa,5,female,19,NA,NA,NA
EA_exp_2,1,1,18,144,2,z,4,3209,2095,cr,1,female,19,NA,NA,NA
EA_exp_2,1,1,19,113,2,m,2,2586,1359,fa,4,female,19,NA,NA,NA
EA_exp_2,1,1,20,177,2,z,3,1529,966,cr,2,female,19,NA,NA,NA
EA_exp_2,1,1,21,88,1,z,2,1984,892,miss,3,female,19,q,older,1
EA_exp_2,1,1,22,135,2,z,3,1960,2835,cr,2,female,19,NA,NA,NA
EA_exp_2,1,1,23,172,2,z,3,1362,1286,cr,2,female,19,NA,NA,NA
EA_exp_2,1,1,24,110,2,z,4,1861,1011,cr,1,female,19,NA,NA,NA
EA_exp_2,1,1,25,179,2,z,3,2124,1088,cr,2,female,19,NA,NA,NA
EA_exp_2,1,1,26,14,1,m,4,1701,1035,hit,6,female,19,q,older,1
EA_exp_2,1,1,27,118,2,z,4,1841,739,cr,1,female,19,NA,NA,NA
EA_exp_2,1,1,28,84,1,m,4,1463,1013,hit,6,female,19,q,older,1
EA_exp_2,1,1,29,162,2,z,3,1584,3209,cr,2,female,19,NA,NA,NA
EA_exp_2,1,1,30,45,1,m,2,3432,1178,hit,4,female,19,q,older,1
EA_exp_2,1,1,31,51,1,z,4,3576,1943,miss,1,female,19,q,older,1
EA_exp_2,1,1,32,170,2,z,3,1803,924,cr,2,female,19,NA,NA,NA
EA_exp_2,1,1,33,174,2,z,3,1937,2116,cr,2,female,19,NA,NA,NA
EA_exp_2,1,1,34,176,2,z,4,1667,2344,cr,1,female,19,NA,NA,NA
EA_exp_2,1,1,35,133,2,z,3,2238,1276,cr,2,female,19,NA,NA,NA
EA_exp_2,1,1,36,104,2,z,3,1851,1370,cr,2,female,19,NA,NA,NA
EA_exp_2,1,1,37,19,1,m,2,2260,1300,hit,4,female,19,q,older,1
EA_exp_2,1,1,38,53,1,m,4,1424,1009,hit,6,female,19,q,older,1
EA_exp_2,1,1,39,55,1,m,4,1176,852,hit,6,female,19,q,older,1
EA_exp_2,1,1,40,72,1,m,2,2385,798,hit,4,female,19,q,older,1
EA_exp_2,1,1,41,105,2,z,4,1423,1072,cr,1,female,19,NA,NA,NA
EA_exp_2,1,1,42,103,2,m,2,1971,656,fa,4,female,19,NA,NA,NA
EA_exp_2,1,1,43,109,2,z,3,1830,952,cr,2,female,19,NA,NA,NA
EA_exp_2,1,1,44,96,1,m,4,1777,661,hit,6,female,19,p,younger,1
EA_exp_2,1,1,45,184,2,z,3,2973,863,cr,2,female,19,NA,NA,NA
EA_exp_2,1,1,46,13,1,m,2,2732,1402,hit,4,female,19,q,older,1
EA_exp_2,1,1,47,171,2,z,3,1379,822,cr,2,female,19,NA,NA,NA
EA_exp_2,1,1,48,121,2,z,4,1700,844,cr,1,female,19,NA,NA,NA
EA_exp_2,1,1,49,56,1,m,2,1381,1022,hit,4,female,19,p,younger,1
EA_exp_2,1,1,50,142,2,z,3,1350,986,cr,2,female,19,NA,NA,NA
EA_exp_2,1,1,51,185,2,z,3,1523,816,cr,2,female,19,NA,NA,NA
EA_exp_2,1,1,52,86,1,z,3,2288,1183,miss,2,female,19,p,younger,1
EA_exp_2,1,1,53,108,2,z,3,1679,1831,cr,2,female,19,NA,NA,NA
EA_exp_2,1,1,54,76,1,m,3,1775,818,hit,5,female,19,q,older,1
EA_exp_2,1,1,55,141,2,m,2,1951,894,fa,4,female,19,NA,NA,NA
EA_exp_2,1,1,56,155,2,z,3,1611,693,cr,2,female,19,NA,NA,NA
EA_exp_2,1,1,57,160,2,z,4,1034,810,cr,1,female,19,NA,NA,NA
EA_exp_2,1,1,58,123,2,z,4,1337,1551,cr,1,female,19,NA,NA,NA
EA_exp_2,1,1,59,112,2,z,2,2481,1144,cr,3,female,19,NA,NA,NA
EA_exp_2,1,1,60,116,2,z,2,1483,891,cr,3,female,19,NA,NA,NA
EA_exp_2,1,1,61,83,1,z,2,1130,2517,miss,3,female,19,q,older,1
EA_exp_2,1,1,62,25,1,m,4,1888,719,hit,6,female,19,p,younger,1
EA_exp_2,1,1,63,79,1,m,4,932,440,hit,6,female,19,p,younger,1
EA_exp_2,1,1,64,93,1,m,4,1016,873,hit,6,female,19,q,older,1
EA_exp_2,1,1,65,24,1,m,4,2001,352,hit,6,female,19,q,older,1
EA_exp_2,1,1,66,12,1,m,4,838,699,hit,6,female,19,q,older,1
EA_exp_2,1,1,67,191,2,z,2,3327,853,cr,3,female,19,NA,NA,NA
EA_exp_2,1,1,68,74,1,m,2,1654,684,hit,4,female,19,p,younger,1
EA_exp_2,1,1,69,66,1,m,4,980,628,hit,6,female,19,q,older,1
EA_exp_2,1,1,70,183,2,z,3,1678,835,cr,2,female,19,NA,NA,NA
EA_exp_2,1,1,71,189,2,z,3,1234,1115,cr,2,female,19,NA,NA,NA
EA_exp_2,1,1,72,62,1,m,2,1359,1059,hit,4,female,19,p,younger,1
EA_exp_2,1,1,73,164,2,z,3,2218,569,cr,2,female,19,NA,NA,NA
EA_exp_2,1,1,74,131,2,m,3,1248,732,fa,5,female,19,NA,NA,NA
EA_exp_2,1,1,75,32,1,z,3,1519,1422,miss,2,female,19,q,older,1
EA_exp_2,1,1,76,9,1,m,4,1078,549,hit,6,female,19,q,older,1
EA_exp_2,1,1,77,71,1,m,4,1105,574,hit,6,female,19,q,older,1
EA_exp_2,1,1,78,57,1,m,4,901,542,hit,6,female,19,p,younger,1
EA_exp_2,1,1,79,8,1,m,4,843,800,hit,6,female,19,p,younger,1
EA_exp_2,1,1,80,197,2,z,3,1601,1404,cr,2,female,19,NA,NA,NA
EA_exp_2,1,1,81,117,2,m,2,2861,556,fa,4,female,19,NA,NA,NA
EA_exp_2,1,1,82,169,2,m,2,1304,461,fa,4,female,19,NA,NA,NA
EA_exp_2,1,1,83,187,2,z,2,3000,588,cr,3,female,19,NA,NA,NA
EA_exp_2,1,1,84,193,2,z,3,1127,1075,cr,2,female,19,NA,NA,NA
EA_exp_2,1,1,85,40,1,z,3,1642,721,miss,2,female,19,p,younger,1
EA_exp_2,1,1,86,178,2,z,4,1094,1156,cr,1,female,19,NA,NA,NA
EA_exp_2,1,1,87,77,1,z,3,2071,861,miss,2,female,19,p,younger,1
EA_exp_2,1,1,88,181,2,z,3,1933,1304,cr,2,female,19,NA,NA,NA
EA_exp_2,1,1,89,2,1,z,3,1623,1550,miss,2,female,19,q,older,1
EA_exp_2,1,1,90,18,1,m,2,1873,704,hit,4,female,19,p,younger,1
EA_exp_2,1,1,91,82,1,z,3,1411,726,miss,2,female,19,q,older,1
EA_exp_2,1,1,92,33,1,z,3,905,1007,miss,2,female,19,q,older,1
EA_exp_2,1,1,93,125,2,z,3,1433,1129,cr,2,female,19,NA,NA,NA
EA_exp_2,1,1,94,44,1,m,4,1822,445,hit,6,female,19,p,younger,1
EA_exp_2,1,1,95,120,2,m,3,1261,852,fa,5,female,19,NA,NA,NA
EA_exp_2,1,1,96,63,1,m,4,835,796,hit,6,female,19,q,older,1
EA_exp_2,1,1,97,129,2,z,3,3197,919,cr,2,female,19,NA,NA,NA
EA_exp_2,1,1,98,10,1,m,3,1361,711,hit,5,female,19,p,younger,1
EA_exp_2,1,1,99,75,1,m,2,1098,1432,hit,4,female,19,p,younger,1
EA_exp_2,1,1,100,87,1,z,2,1662,919,miss,3,female,19,q,older,1
EA_exp_2,1,1,101,60,1,z,3,1191,1134,miss,2,female,19,p,younger,1
EA_exp_2,1,1,102,130,2,z,3,1057,865,cr,2,female,19,NA,NA,NA
EA_exp_2,1,1,103,80,1,m,4,1218,778,hit,6,female,19,p,younger,1
EA_exp_2,1,1,104,78,1,m,4,922,671,hit,6,female,19,p,younger,1
EA_exp_2,1,1,105,145,2,z,3,1412,774,cr,2,female,19,NA,NA,NA
EA_exp_2,1,1,106,99,1,z,4,1131,3397,miss,1,female,19,p,younger,1
EA_exp_2,1,1,107,136,2,z,3,2782,953,cr,2,female,19,NA,NA,NA
EA_exp_2,1,1,108,122,2,z,4,1745,793,cr,1,female,19,NA,NA,NA
EA_exp_2,1,1,109,6,1,z,4,1304,687,miss,1,female,19,q,older,1
EA_exp_2,1,1,110,194,2,z,3,3862,644,cr,2,female,19,NA,NA,NA
EA_exp_2,1,1,111,11,1,z,3,1150,903,miss,2,female,19,q,older,1
EA_exp_2,1,1,112,97,1,m,2,2595,1222,hit,4,female,19,p,younger,1
EA_exp_2,1,1,113,192,2,z,3,1952,737,cr,2,female,19,NA,NA,NA
EA_exp_2,1,1,114,157,2,z,4,1079,1171,cr,1,female,19,NA,NA,NA
EA_exp_2,1,1,115,94,1,z,4,2118,907,miss,1,female,19,p,younger,1
EA_exp_2,1,1,116,70,1,m,4,1305,493,hit,6,female,19,q,older,1
EA_exp_2,1,1,117,37,1,z,2,1531,535,miss,3,female,19,q,older,1
EA_exp_2,1,1,118,138,2,m,3,1539,703,fa,5,female,19,NA,NA,NA
EA_exp_2,1,1,119,43,1,z,2,1925,913,miss,3,female,19,q,older,1
EA_exp_2,1,1,120,16,1,m,3,1454,1645,hit,5,female,19,p,younger,1
EA_exp_2,1,1,121,153,2,z,3,1483,811,cr,2,female,19,NA,NA,NA
EA_exp_2,1,1,122,180,2,z,3,1613,949,cr,2,female,19,NA,NA,NA
EA_exp_2,1,1,123,38,1,m,4,1119,718,hit,6,female,19,p,younger,1
EA_exp_2,1,1,124,81,1,z,3,1617,779,miss,2,female,19,q,older,1
EA_exp_2,1,1,125,199,2,z,3,1982,1320,cr,2,female,19,NA,NA,NA
EA_exp_2,1,1,126,90,1,z,3,1174,847,miss,2,female,19,q,older,1
EA_exp_2,1,1,127,35,1,m,4,1087,509,hit,6,female,19,q,older,1
EA_exp_2,1,1,128,101,2,z,4,1337,1326,cr,1,female,19,NA,NA,NA
EA_exp_2,1,1,129,27,1,z,4,1301,1616,miss,1,female,19,q,older,1
EA_exp_2,1,1,130,23,1,m,4,1952,780,hit,6,female,19,q,older,1
EA_exp_2,1,1,131,132,2,z,3,1393,576,cr,2,female,19,NA,NA,NA
EA_exp_2,1,1,132,200,2,z,4,1164,918,cr,1,female,19,NA,NA,NA
EA_exp_2,1,1,133,100,1,m,3,1634,1290,hit,5,female,19,q,older,1
EA_exp_2,1,1,134,158,2,z,4,1450,680,cr,1,female,19,NA,NA,NA
EA_exp_2,1,1,135,140,2,z,3,1306,643,cr,2,female,19,NA,NA,NA
EA_exp_2,1,1,136,73,1,m,4,1244,434,hit,6,female,19,p,younger,1
EA_exp_2,1,1,137,69,1,m,4,769,477,hit,6,female,19,q,older,1
EA_exp_2,1,1,138,134,2,z,3,1370,605,cr,2,female,19,NA,NA,NA
EA_exp_2,1,1,139,46,1,m,4,870,494,hit,6,female,19,q,older,1
EA_exp_2,1,1,140,85,1,z,3,1101,490,miss,2,female,19,q,older,1
EA_exp_2,1,1,141,91,1,m,4,1652,463,hit,6,female,19,q,older,1
EA_exp_2,1,1,142,168,2,z,3,1982,648,cr,2,female,19,NA,NA,NA
EA_exp_2,1,1,143,111,2,m,2,1315,517,fa,4,female,19,NA,NA,NA
EA_exp_2,1,1,144,58,1,m,4,1171,444,hit,6,female,19,p,younger,1
EA_exp_2,1,1,145,166,2,m,2,1277,483,fa,4,female,19,NA,NA,NA
EA_exp_2,1,1,146,21,1,z,3,2075,1111,miss,2,female,19,q,older,1
EA_exp_2,1,1,147,119,2,z,4,1325,896,cr,1,female,19,NA,NA,NA
EA_exp_2,1,1,148,148,2,z,3,1677,677,cr,2,female,19,NA,NA,NA
EA_exp_2,1,1,149,5,1,z,3,4956,655,miss,2,female,19,q,older,1
EA_exp_2,1,1,150,106,2,z,4,1285,684,cr,1,female,19,NA,NA,NA
EA_exp_2,1,1,151,47,1,z,3,1380,1172,miss,2,female,19,q,older,1
EA_exp_2,1,1,152,42,1,z,4,2261,1941,miss,1,female,19,q,older,1
EA_exp_2,1,1,153,15,1,m,4,1432,521,hit,6,female,19,p,younger,1
EA_exp_2,1,1,154,137,2,m,2,1335,634,fa,4,female,19,NA,NA,NA
EA_exp_2,1,1,155,41,1,z,3,1268,744,miss,2,female,19,q,older,1
EA_exp_2,1,1,156,147,2,z,3,2510,769,cr,2,female,19,NA,NA,NA
EA_exp_2,1,1,157,163,2,z,3,1026,932,cr,2,female,19,NA,NA,NA
EA_exp_2,1,1,158,89,1,m,4,1119,1437,hit,6,female,19,q,older,1
EA_exp_2,1,1,159,159,2,z,3,2052,925,cr,2,female,19,NA,NA,NA
EA_exp_2,1,1,160,7,1,m,4,1128,549,hit,6,female,19,p,younger,1
EA_exp_2,1,1,161,64,1,m,4,894,646,hit,6,female,19,q,older,1
EA_exp_2,1,1,162,36,1,m,2,1448,702,hit,4,female,19,q,older,1
EA_exp_2,1,1,163,165,2,z,2,1203,637,cr,3,female,19,NA,NA,NA
EA_exp_2,1,1,164,115,2,z,3,1269,1339,cr,2,female,19,NA,NA,NA
EA_exp_2,1,1,165,124,2,m,3,1194,704,fa,5,female,19,NA,NA,NA
EA_exp_2,1,1,166,127,2,z,3,2039,574,cr,2,female,19,NA,NA,NA
EA_exp_2,1,1,167,17,1,z,3,1753,684,miss,2,female,19,p,younger,1
EA_exp_2,1,1,168,154,2,z,3,1138,494,cr,2,female,19,NA,NA,NA
EA_exp_2,1,1,169,173,2,z,3,1515,985,cr,2,female,19,NA,NA,NA
EA_exp_2,1,1,170,198,2,m,3,1426,419,fa,5,female,19,NA,NA,NA
EA_exp_2,1,1,171,92,1,m,4,869,442,hit,6,female,19,p,younger,1
EA_exp_2,1,1,172,156,2,z,4,1307,560,cr,1,female,19,NA,NA,NA
EA_exp_2,1,1,173,175,2,z,3,1114,759,cr,2,female,19,NA,NA,NA
EA_exp_2,1,1,174,107,2,z,3,970,844,cr,2,female,19,NA,NA,NA
EA_exp_2,1,1,175,30,1,m,4,1084,459,hit,6,female,19,p,younger,1
EA_exp_2,1,1,176,114,2,z,3,1866,489,cr,2,female,19,NA,NA,NA
EA_exp_2,1,1,177,182,2,z,3,2361,866,cr,2,female,19,NA,NA,NA
EA_exp_2,1,1,178,31,1,m,3,1289,1143,hit,5,female,19,q,older,1
EA_exp_2,1,1,179,188,2,z,3,1130,1623,cr,2,female,19,NA,NA,NA
EA_exp_2,1,1,180,152,2,z,4,1768,2170,cr,1,female,19,NA,NA,NA
EA_exp_2,1,1,181,195,2,z,4,1110,882,cr,1,female,19,NA,NA,NA
EA_exp_2,1,1,182,54,1,m,3,1817,911,hit,5,female,19,p,younger,1
EA_exp_2,1,1,183,48,1,z,3,1164,1079,miss,2,female,19,q,older,1
EA_exp_2,1,1,184,20,1,z,3,1631,2711,miss,2,female,19,q,older,1
EA_exp_2,1,1,185,1,1,z,3,2092,1040,miss,2,female,19,p,younger,1
EA_exp_2,1,1,186,139,2,z,4,1351,685,cr,1,female,19,NA,NA,NA
EA_exp_2,1,1,187,50,1,z,3,1281,1320,miss,2,female,19,p,younger,1
EA_exp_2,1,1,188,28,1,m,3,2038,733,hit,5,female,19,q,older,1
EA_exp_2,1,1,189,29,1,m,3,1455,1104,hit,5,female,19,q,older,1
EA_exp_2,1,1,190,196,2,z,3,1826,550,cr,2,female,19,NA,NA,NA
EA_exp_2,1,1,191,52,1,m,3,1456,1071,hit,5,female,19,q,older,1
EA_exp_2,1,1,192,65,1,m,3,1989,1072,hit,5,female,19,p,younger,1
EA_exp_2,1,1,193,59,1,z,3,1412,1224,miss,2,female,19,p,younger,1
EA_exp_2,1,1,194,95,1,m,4,1105,725,hit,6,female,19,p,younger,1
EA_exp_2,1,1,195,186,2,z,3,1336,1293,cr,2,female,19,NA,NA,NA
EA_exp_2,1,1,196,67,1,m,2,1422,1116,hit,4,female,19,q,older,1
EA_exp_2,1,1,197,102,2,z,3,1969,891,cr,2,female,19,NA,NA,NA
EA_exp_2,1,1,198,161,2,z,2,1402,1034,cr,3,female,19,NA,NA,NA
EA_exp_2,1,1,199,190,2,m,3,2403,1580,fa,5,female,19,NA,NA,NA
EA_exp_2,1,1,200,146,2,z,2,1695,693,cr,3,female,19,NA,NA,NA
EA_exp_2,2,1,1,196,2,z,4,5581,5606,cr,1,female,22,NA,NA,NA
EA_exp_2,2,1,2,38,1,m,4,3368,554,hit,6,female,22,q,older,1
EA_exp_2,2,1,3,186,2,z,4,1715,1048,cr,1,female,22,NA,NA,NA
EA_exp_2,2,1,4,59,1,m,4,1343,517,hit,6,female,22,p,younger,1
EA_exp_2,2,1,5,185,2,z,4,2112,614,cr,1,female,22,NA,NA,NA
EA_exp_2,2,1,6,17,1,m,4,1117,844,hit,6,female,22,p,younger,1
EA_exp_2,2,1,7,193,2,z,4,1402,877,cr,1,female,22,NA,NA,NA
EA_exp_2,2,1,8,126,2,z,4,1781,398,cr,1,female,22,NA,NA,NA
EA_exp_2,2,1,9,1,1,m,4,1549,300,hit,6,female,22,q,older,1
EA_exp_2,2,1,10,106,2,z,4,1936,765,cr,1,female,22,NA,NA,NA
EA_exp_2,2,1,11,169,2,z,4,898,182,cr,1,female,22,NA,NA,NA
EA_exp_2,2,1,12,112,2,z,4,690,207,cr,1,female,22,NA,NA,NA
EA_exp_2,2,1,13,9,1,m,1,1623,752,hit,4,female,22,q,older,1
EA_exp_2,2,1,14,166,2,m,1,1123,383,fa,4,female,22,NA,NA,NA
EA_exp_2,2,1,15,71,1,m,4,1183,603,hit,6,female,22,q,older,1
EA_exp_2,2,1,16,20,1,m,4,799,382,hit,6,female,22,q,older,1
EA_exp_2,2,1,17,157,2,z,4,1376,291,cr,1,female,22,NA,NA,NA
EA_exp_2,2,1,18,53,1,m,4,1371,282,hit,6,female,22,q,older,1
EA_exp_2,2,1,19,33,1,z,4,1647,265,miss,1,female,22,q,older,1
EA_exp_2,2,1,20,123,2,z,4,1887,446,cr,1,female,22,NA,NA,NA
EA_exp_2,2,1,21,121,2,z,4,1166,312,cr,1,female,22,NA,NA,NA
EA_exp_2,2,1,22,85,1,z,4,1247,214,miss,1,female,22,q,older,1
EA_exp_2,2,1,23,119,2,z,4,1213,327,cr,1,female,22,NA,NA,NA
EA_exp_2,2,1,24,183,2,z,3,1435,332,cr,2,female,22,NA,NA,NA
EA_exp_2,2,1,25,96,1,m,4,1587,203,hit,6,female,22,p,younger,1
EA_exp_2,2,1,26,7,1,m,4,1378,214,hit,6,female,22,q,older,1
EA_exp_2,2,1,27,150,2,z,4,1728,228,cr,1,female,22,NA,NA,NA
EA_exp_2,2,1,28,27,1,z,4,937,208,miss,1,female,22,q,older,1
EA_exp_2,2,1,29,60,1,z,3,709,181,miss,2,female,22,p,younger,1
EA_exp_2,2,1,30,141,2,z,3,1277,230,cr,2,female,22,NA,NA,NA
EA_exp_2,2,1,31,35,1,z,3,1005,304,miss,2,female,22,q,older,1
EA_exp_2,2,1,32,48,1,z,3,1078,339,miss,2,female,22,q,older,1
EA_exp_2,2,1,33,25,1,m,4,1508,292,hit,6,female,22,p,younger,1
EA_exp_2,2,1,34,22,1,m,4,713,149,hit,6,female,22,q,older,1
EA_exp_2,2,1,35,143,2,z,1,1232,426,cr,3,female,22,NA,NA,NA
EA_exp_2,2,1,36,63,1,z,1,597,204,miss,3,female,22,q,older,1
EA_exp_2,2,1,37,111,2,z,1,758,208,cr,3,female,22,NA,NA,NA
EA_exp_2,2,1,38,3,1,m,4,1751,173,hit,6,female,22,p,younger,1
EA_exp_2,2,1,39,181,2,z,3,2696,229,cr,2,female,22,NA,NA,NA
EA_exp_2,2,1,40,10,1,z,2,860,612,miss,3,female,22,p,younger,1
EA_exp_2,2,1,41,110,2,z,2,859,180,cr,3,female,22,NA,NA,NA
EA_exp_2,2,1,42,184,2,z,3,1389,193,cr,2,female,22,NA,NA,NA
EA_exp_2,2,1,43,94,1,m,4,1611,227,hit,6,female,22,q,older,1
EA_exp_2,2,1,44,52,1,m,4,1420,155,hit,6,female,22,p,younger,1
EA_exp_2,2,1,45,152,2,m,1,1973,226,fa,4,female,22,NA,NA,NA
EA_exp_2,2,1,46,103,2,z,3,1529,597,cr,2,female,22,NA,NA,NA
EA_exp_2,2,1,47,43,1,m,4,1840,176,hit,6,female,22,q,older,1
EA_exp_2,2,1,48,66,1,m,4,795,195,hit,6,female,22,q,older,1
EA_exp_2,2,1,49,55,1,m,4,725,298,hit,6,female,22,q,older,1
EA_exp_2,2,1,50,97,1,m,4,673,174,hit,6,female,22,p,younger,1
EA_exp_2,2,1,51,197,2,m,4,857,159,fa,6,female,22,NA,NA,NA
EA_exp_2,2,1,52,40,1,m,4,1161,245,hit,6,female,22,p,younger,1
EA_exp_2,2,1,53,87,1,m,4,685,156,hit,6,female,22,q,older,1
EA_exp_2,2,1,54,145,2,z,4,1683,765,cr,1,female,22,NA,NA,NA
EA_exp_2,2,1,55,5,1,z,4,703,189,miss,1,female,22,q,older,1
EA_exp_2,2,1,56,8,1,m,4,1464,198,hit,6,female,22,p,younger,1
EA_exp_2,2,1,57,16,1,m,4,782,153,hit,6,female,22,p,younger,1
EA_exp_2,2,1,58,99,1,m,4,881,204,hit,6,female,22,p,younger,1
EA_exp_2,2,1,59,133,2,z,4,1828,229,cr,1,female,22,NA,NA,NA
EA_exp_2,2,1,60,159,2,z,4,922,161,cr,1,female,22,NA,NA,NA
EA_exp_2,2,1,61,154,2,z,4,541,303,cr,1,female,22,NA,NA,NA
EA_exp_2,2,1,62,11,1,z,4,725,194,miss,1,female,22,q,older,1
EA_exp_2,2,1,63,195,2,z,4,714,215,cr,1,female,22,NA,NA,NA
EA_exp_2,2,1,64,120,2,z,4,719,252,cr,1,female,22,NA,NA,NA
EA_exp_2,2,1,65,73,1,z,4,844,221,miss,1,female,22,q,older,1
EA_exp_2,2,1,66,64,1,m,4,1507,194,hit,6,female,22,p,younger,1
EA_exp_2,2,1,67,37,1,m,4,940,110,hit,6,female,22,p,younger,1
EA_exp_2,2,1,68,69,1,m,4,1050,155,hit,6,female,22,q,older,1
EA_exp_2,2,1,69,124,2,m,4,407,191,fa,6,female,22,NA,NA,NA
EA_exp_2,2,1,70,92,1,m,2,1340,510,hit,4,female,22,p,younger,1
EA_exp_2,2,1,71,98,1,m,2,878,258,hit,4,female,22,q,older,1
EA_exp_2,2,1,72,131,2,z,1,2039,351,cr,3,female,22,NA,NA,NA
EA_exp_2,2,1,73,156,2,z,1,580,181,cr,3,female,22,NA,NA,NA
EA_exp_2,2,1,74,30,1,z,3,878,166,miss,2,female,22,p,younger,1
EA_exp_2,2,1,75,146,2,z,3,576,163,cr,2,female,22,NA,NA,NA
EA_exp_2,2,1,76,108,2,z,3,637,255,cr,2,female,22,NA,NA,NA
EA_exp_2,2,1,77,6,1,z,4,1108,211,miss,1,female,22,q,older,1
EA_exp_2,2,1,78,187,2,z,1,2183,173,cr,3,female,22,NA,NA,NA
EA_exp_2,2,1,79,105,2,z,1,793,161,cr,3,female,22,NA,NA,NA
EA_exp_2,2,1,80,39,1,m,4,1834,189,hit,6,female,22,p,younger,1
EA_exp_2,2,1,81,23,1,m,4,1034,153,hit,6,female,22,q,older,1
EA_exp_2,2,1,82,89,1,m,4,713,287,hit,6,female,22,p,younger,1
EA_exp_2,2,1,83,171,2,z,3,1409,597,cr,2,female,22,NA,NA,NA
EA_exp_2,2,1,84,88,1,m,4,1614,153,hit,6,female,22,p,younger,1
EA_exp_2,2,1,85,137,2,z,4,1394,182,cr,1,female,22,NA,NA,NA
EA_exp_2,2,1,86,188,2,z,4,1232,168,cr,1,female,22,NA,NA,NA
EA_exp_2,2,1,87,81,1,z,4,931,167,miss,1,female,22,q,older,1
EA_exp_2,2,1,88,58,1,m,4,1566,124,hit,6,female,22,q,older,1
EA_exp_2,2,1,89,90,1,z,4,1368,187,miss,1,female,22,q,older,1
EA_exp_2,2,1,90,54,1,z,4,1122,177,miss,1,female,22,p,younger,1
EA_exp_2,2,1,91,86,1,z,4,1306,159,miss,1,female,22,q,older,1
EA_exp_2,2,1,92,161,2,z,4,905,192,cr,1,female,22,NA,NA,NA
EA_exp_2,2,1,93,61,1,m,4,1465,169,hit,6,female,22,p,younger,1
EA_exp_2,2,1,94,177,2,z,4,1474,146,cr,1,female,22,NA,NA,NA
EA_exp_2,2,1,95,199,2,z,4,1200,183,cr,1,female,22,NA,NA,NA
EA_exp_2,2,1,96,117,2,z,3,1247,185,cr,2,female,22,NA,NA,NA
EA_exp_2,2,1,97,82,1,z,4,1343,183,miss,1,female,22,q,older,1
EA_exp_2,2,1,98,167,2,z,4,1314,197,cr,1,female,22,NA,NA,NA
EA_exp_2,2,1,99,77,1,z,4,1114,220,miss,1,female,22,p,younger,1
EA_exp_2,2,1,100,93,1,m,4,1445,213,hit,6,female,22,p,younger,1
EA_exp_2,2,1,101,32,1,m,4,861,308,hit,6,female,22,q,older,1
EA_exp_2,2,1,102,179,2,z,4,1522,261,cr,1,female,22,NA,NA,NA
EA_exp_2,2,1,103,151,2,z,4,1037,236,cr,1,female,22,NA,NA,NA
EA_exp_2,2,1,104,72,1,z,4,1029,213,miss,1,female,22,q,older,1
EA_exp_2,2,1,105,125,2,m,3,2252,317,fa,5,female,22,NA,NA,NA
EA_exp_2,2,1,106,95,1,m,4,1009,179,hit,6,female,22,q,older,1
EA_exp_2,2,1,107,168,2,z,1,2124,178,cr,3,female,22,NA,NA,NA
EA_exp_2,2,1,108,19,1,z,3,1146,183,miss,2,female,22,p,younger,1
EA_exp_2,2,1,109,104,2,z,3,735,157,cr,2,female,22,NA,NA,NA
EA_exp_2,2,1,110,14,1,z,3,1082,134,miss,2,female,22,q,older,1
EA_exp_2,2,1,111,49,1,m,4,1426,162,hit,6,female,22,p,younger,1
EA_exp_2,2,1,112,113,2,z,1,1565,232,cr,3,female,22,NA,NA,NA
EA_exp_2,2,1,113,100,1,m,4,1920,175,hit,6,female,22,p,younger,1
EA_exp_2,2,1,114,140,2,z,3,1513,181,cr,2,female,22,NA,NA,NA
EA_exp_2,2,1,115,21,1,z,3,926,132,miss,2,female,22,q,older,1
EA_exp_2,2,1,116,142,2,z,3,825,137,cr,2,female,22,NA,NA,NA
EA_exp_2,2,1,117,174,2,z,2,854,156,cr,3,female,22,NA,NA,NA
EA_exp_2,2,1,118,164,2,z,2,839,208,cr,3,female,22,NA,NA,NA
EA_exp_2,2,1,119,114,2,z,3,1050,200,cr,2,female,22,NA,NA,NA
EA_exp_2,2,1,120,102,2,z,4,1214,218,cr,1,female,22,NA,NA,NA
EA_exp_2,2,1,121,79,1,m,4,1410,131,hit,6,female,22,p,younger,1
EA_exp_2,2,1,122,107,2,m,4,925,276,fa,6,female,22,NA,NA,NA
EA_exp_2,2,1,123,109,2,z,1,1208,227,cr,3,female,22,NA,NA,NA
EA_exp_2,2,1,124,74,1,m,4,1657,114,hit,6,female,22,q,older,1
EA_exp_2,2,1,125,67,1,m,4,1391,273,hit,6,female,22,p,younger,1
EA_exp_2,2,1,126,130,2,z,3,1863,215,cr,2,female,22,NA,NA,NA
EA_exp_2,2,1,127,56,1,m,4,2017,152,hit,6,female,22,p,younger,1
EA_exp_2,2,1,128,118,2,z,3,2050,219,cr,2,female,22,NA,NA,NA
EA_exp_2,2,1,129,170,2,z,3,914,169,cr,2,female,22,NA,NA,NA
EA_exp_2,2,1,130,180,2,z,2,993,149,cr,3,female,22,NA,NA,NA
EA_exp_2,2,1,131,162,2,z,4,943,421,cr,1,female,22,NA,NA,NA
EA_exp_2,2,1,132,122,2,z,4,685,242,cr,1,female,22,NA,NA,NA
EA_exp_2,2,1,133,18,1,z,4,682,200,miss,1,female,22,p,younger,1
EA_exp_2,2,1,134,129,2,z,4,703,271,cr,1,female,22,NA,NA,NA
EA_exp_2,2,1,135,135,2,z,4,739,209,cr,1,female,22,NA,NA,NA
EA_exp_2,2,1,136,172,2,z,4,796,243,cr,1,female,22,NA,NA,NA
EA_exp_2,2,1,137,44,1,m,4,1498,201,hit,6,female,22,p,younger,1
EA_exp_2,2,1,138,28,1,m,4,674,193,hit,6,female,22,p,younger,1
EA_exp_2,2,1,139,75,1,z,4,1227,210,miss,1,female,22,q,older,1
EA_exp_2,2,1,140,36,1,z,4,1132,215,miss,1,female,22,None,NA,1
EA_exp_2,2,1,141,68,1,m,4,1824,160,hit,6,female,22,q,older,1
EA_exp_2,2,1,142,134,2,z,4,1273,274,cr,1,female,22,NA,NA,NA
EA_exp_2,2,1,143,165,2,z,4,681,183,cr,1,female,22,NA,NA,NA
EA_exp_2,2,1,144,70,1,m,4,1153,189,hit,6,female,22,q,older,1
EA_exp_2,2,1,145,191,2,m,4,1252,190,fa,6,female,22,NA,NA,NA
EA_exp_2,2,1,146,29,1,m,4,1014,217,hit,6,female,22,p,younger,1
EA_exp_2,2,1,147,147,2,z,4,1231,186,cr,1,female,22,NA,NA,NA
EA_exp_2,2,1,148,47,1,m,4,1862,162,hit,6,female,22,q,older,1
EA_exp_2,2,1,149,155,2,z,4,1765,607,cr,1,female,22,NA,NA,NA
EA_exp_2,2,1,150,144,2,z,4,1754,268,cr,1,female,22,NA,NA,NA
EA_exp_2,2,1,151,78,1,m,4,1858,146,hit,6,female,22,p,younger,1
EA_exp_2,2,1,152,12,1,z,4,1675,211,miss,1,female,22,q,older,1
EA_exp_2,2,1,153,24,1,z,3,1643,180,miss,2,female,22,q,older,1
EA_exp_2,2,1,154,176,2,z,1,2732,203,cr,3,female,22,NA,NA,NA
EA_exp_2,2,1,155,41,1,z,1,2292,481,miss,3,female,22,q,older,1
EA_exp_2,2,1,156,198,2,z,1,1597,265,cr,3,female,22,NA,NA,NA
EA_exp_2,2,1,157,115,2,z,3,897,246,cr,2,female,22,NA,NA,NA
EA_exp_2,2,1,158,62,1,m,4,2607,463,hit,6,female,22,p,younger,1
EA_exp_2,2,1,159,84,1,m,3,2272,1515,hit,5,female,22,p,younger,1
EA_exp_2,2,1,160,13,1,m,4,769,348,hit,6,female,22,p,younger,1
EA_exp_2,2,1,161,31,1,m,2,1374,706,hit,4,female,22,q,older,1
EA_exp_2,2,1,162,138,2,z,4,1655,319,cr,1,female,22,NA,NA,NA
EA_exp_2,2,1,163,116,2,z,4,501,217,cr,1,female,22,NA,NA,NA
EA_exp_2,2,1,164,34,1,z,4,752,333,miss,1,female,22,p,younger,1
EA_exp_2,2,1,165,173,2,z,4,703,271,cr,1,female,22,NA,NA,NA
EA_exp_2,2,1,166,158,2,z,4,754,224,cr,1,female,22,NA,NA,NA
EA_exp_2,2,1,167,65,1,z,4,841,256,miss,1,female,22,p,younger,1
EA_exp_2,2,1,168,26,1,z,4,793,257,miss,1,female,22,q,older,1
EA_exp_2,2,1,169,50,1,m,4,1462,231,hit,6,female,22,q,older,1
EA_exp_2,2,1,170,91,1,m,4,706,237,hit,6,female,22,p,younger,1
EA_exp_2,2,1,171,42,1,z,2,1605,350,miss,3,female,22,q,older,1
EA_exp_2,2,1,172,189,2,z,2,641,639,cr,3,female,22,NA,NA,NA
EA_exp_2,2,1,173,132,2,z,2,762,244,cr,3,female,22,NA,NA,NA
EA_exp_2,2,1,174,148,2,z,2,1435,219,cr,3,female,22,NA,NA,NA
EA_exp_2,2,1,175,45,1,z,1,1091,2242,miss,3,female,22,q,older,1
EA_exp_2,2,1,176,190,2,z,3,1865,296,cr,2,female,22,NA,NA,NA
EA_exp_2,2,1,177,4,1,m,4,1514,251,hit,6,female,22,q,older,1
EA_exp_2,2,1,178,149,2,z,4,1599,284,cr,1,female,22,NA,NA,NA
EA_exp_2,2,1,179,83,1,z,4,1039,193,miss,1,female,22,q,older,1
EA_exp_2,2,1,180,200,2,z,4,1226,243,cr,1,female,22,NA,NA,NA
EA_exp_2,2,1,181,51,1,z,4,1274,288,miss,1,female,22,q,older,1
EA_exp_2,2,1,182,175,2,z,4,2150,266,cr,1,female,22,NA,NA,NA
EA_exp_2,2,1,183,101,2,z,4,593,258,cr,1,female,22,NA,NA,NA
EA_exp_2,2,1,184,136,2,z,4,999,331,cr,1,female,22,NA,NA,NA
EA_exp_2,2,1,185,2,1,m,4,1455,303,hit,6,female,22,p,younger,1
EA_exp_2,2,1,186,182,2,z,4,1458,291,cr,1,female,22,NA,NA,NA
EA_exp_2,2,1,187,163,2,z,2,1448,344,cr,3,female,22,NA,NA,NA
EA_exp_2,2,1,188,192,2,z,2,1340,256,cr,3,female,22,NA,NA,NA
EA_exp_2,2,1,189,160,2,z,3,1733,203,cr,2,female,22,NA,NA,NA
EA_exp_2,2,1,190,80,1,m,4,1440,228,hit,6,female,22,p,younger,1
EA_exp_2,2,1,191,15,1,z,2,1419,813,miss,3,female,22,p,younger,1
EA_exp_2,2,1,192,178,2,z,2,1360,369,cr,3,female,22,NA,NA,NA
EA_exp_2,2,1,193,194,2,z,2,1095,608,cr,3,female,22,NA,NA,NA
EA_exp_2,2,1,194,128,2,z,1,1271,400,cr,3,female,22,NA,NA,NA
EA_exp_2,2,1,195,46,1,m,4,1714,229,hit,6,female,22,q,older,1
EA_exp_2,2,1,196,57,1,z,2,2912,387,miss,3,female,22,p,younger,1
EA_exp_2,2,1,197,153,2,z,2,822,301,cr,3,female,22,NA,NA,NA
EA_exp_2,2,1,198,76,1,z,3,531,135,miss,2,female,22,q,older,1
EA_exp_2,2,1,199,139,2,z,4,530,167,cr,1,female,22,NA,NA,NA
EA_exp_2,2,1,200,127,2,z,4,559,197,cr,1,female,22,NA,NA,NA
EA_exp_2,3,2,1,4,2,z,2,4508,2861,cr,3,female,20,NA,NA,NA
EA_exp_2,3,2,2,180,1,m,4,1578,1558,hit,6,female,20,p,younger,1
EA_exp_2,3,2,3,48,2,z,1,2409,1442,cr,3,female,20,NA,NA,NA
EA_exp_2,3,2,4,124,1,m,4,1350,1742,hit,6,female,20,p,younger,1
EA_exp_2,3,2,5,10,2,z,3,2056,2832,cr,2,female,20,NA,NA,NA
EA_exp_2,3,2,6,134,1,m,3,2033,1849,hit,5,female,20,p,younger,1
EA_exp_2,3,2,7,7,2,z,2,2094,1542,cr,3,female,20,NA,NA,NA
EA_exp_2,3,2,8,19,2,z,4,1609,1443,cr,1,female,20,NA,NA,NA
EA_exp_2,3,2,9,49,2,z,4,1620,1458,cr,1,female,20,NA,NA,NA
EA_exp_2,3,2,10,57,2,z,4,1418,1899,cr,1,female,20,NA,NA,NA
EA_exp_2,3,2,11,175,1,m,4,1408,1058,hit,6,female,20,q,older,1
EA_exp_2,3,2,12,166,1,m,4,1145,596,hit,6,female,20,q,older,1
EA_exp_2,3,2,13,196,1,m,4,1232,518,hit,6,female,20,q,older,1
EA_exp_2,3,2,14,56,2,z,4,1266,841,cr,1,female,20,NA,NA,NA
EA_exp_2,3,2,15,24,2,z,3,1383,508,cr,2,female,20,NA,NA,NA
EA_exp_2,3,2,16,67,2,z,4,1280,415,cr,1,female,20,NA,NA,NA
EA_exp_2,3,2,17,13,2,z,4,1343,451,cr,1,female,20,NA,NA,NA
EA_exp_2,3,2,18,96,2,z,1,2611,516,cr,3,female,20,NA,NA,NA
EA_exp_2,3,2,19,160,1,m,4,1217,1097,hit,6,female,20,p,younger,1
EA_exp_2,3,2,20,44,2,z,4,1392,513,cr,1,female,20,NA,NA,NA
EA_exp_2,3,2,21,59,2,z,4,1021,559,cr,1,female,20,NA,NA,NA
EA_exp_2,3,2,22,97,2,z,4,1419,363,cr,1,female,20,NA,NA,NA
EA_exp_2,3,2,23,128,1,m,1,2912,707,hit,4,female,20,q,older,1
EA_exp_2,3,2,24,58,2,z,4,1592,818,cr,1,female,20,NA,NA,NA
EA_exp_2,3,2,25,23,2,z,4,1699,390,cr,1,female,20,NA,NA,NA
EA_exp_2,3,2,26,194,1,m,2,2646,681,hit,4,female,20,p,younger,1
EA_exp_2,3,2,27,27,2,z,2,1419,640,cr,3,female,20,NA,NA,NA
EA_exp_2,3,2,28,43,2,z,4,1544,723,cr,1,female,20,NA,NA,NA
EA_exp_2,3,2,29,110,1,z,3,1737,538,miss,2,female,20,q,older,1
EA_exp_2,3,2,30,1,2,z,3,1479,454,cr,2,female,20,NA,NA,NA
EA_exp_2,3,2,31,171,1,m,4,1046,2083,hit,6,female,20,q,older,1
EA_exp_2,3,2,32,84,2,m,3,1635,537,fa,5,female,20,NA,NA,NA
EA_exp_2,3,2,33,20,2,z,3,1207,799,cr,2,female,20,NA,NA,NA
EA_exp_2,3,2,34,187,1,m,4,978,611,hit,6,female,20,q,older,1
EA_exp_2,3,2,35,191,1,m,4,1207,821,hit,6,female,20,q,older,1
EA_exp_2,3,2,36,118,1,m,1,2229,1701,hit,4,female,20,p,younger,1
EA_exp_2,3,2,37,190,1,m,4,815,732,hit,6,female,20,q,older,1
EA_exp_2,3,2,38,112,1,m,4,830,648,hit,6,female,20,q,older,1
EA_exp_2,3,2,39,186,1,m,4,1264,566,hit,6,female,20,p,younger,1
EA_exp_2,3,2,40,92,2,z,4,1214,409,cr,1,female,20,NA,NA,NA
EA_exp_2,3,2,41,66,2,z,4,1132,424,cr,1,female,20,NA,NA,NA
EA_exp_2,3,2,42,71,2,z,2,1605,689,cr,3,female,20,NA,NA,NA
EA_exp_2,3,2,43,103,1,m,4,916,569,hit,6,female,20,q,older,1
EA_exp_2,3,2,44,39,2,z,3,1170,1200,cr,2,female,20,NA,NA,NA
EA_exp_2,3,2,45,2,2,m,1,1727,325,fa,4,female,20,NA,NA,NA
EA_exp_2,3,2,46,135,1,z,4,1722,479,miss,1,female,20,q,older,1
EA_exp_2,3,2,47,151,1,z,4,1435,814,miss,1,female,20,q,older,1
EA_exp_2,3,2,48,12,2,z,4,3995,488,cr,1,female,20,NA,NA,NA
EA_exp_2,3,2,49,89,2,z,4,1430,502,cr,1,female,20,NA,NA,NA
EA_exp_2,3,2,50,152,1,m,4,1050,547,hit,6,female,20,p,younger,1
EA_exp_2,3,2,51,146,1,z,4,1567,392,miss,1,female,20,q,older,1
EA_exp_2,3,2,52,147,1,m,4,937,671,hit,6,female,20,q,older,1
EA_exp_2,3,2,53,26,2,z,1,2036,1950,cr,3,female,20,NA,NA,NA
EA_exp_2,3,2,54,167,1,m,4,1187,394,hit,6,female,20,p,younger,1
EA_exp_2,3,2,55,95,2,z,4,1406,735,cr,1,female,20,NA,NA,NA
EA_exp_2,3,2,56,114,1,m,4,898,695,hit,6,female,20,p,younger,1
EA_exp_2,3,2,57,31,2,z,4,1353,400,cr,1,female,20,NA,NA,NA
EA_exp_2,3,2,58,50,2,z,4,1393,467,cr,1,female,20,NA,NA,NA
EA_exp_2,3,2,59,109,1,m,4,799,619,hit,6,female,20,q,older,1
EA_exp_2,3,2,60,55,2,z,4,1330,423,cr,1,female,20,NA,NA,NA
EA_exp_2,3,2,61,153,1,m,4,960,427,hit,6,female,20,q,older,1
EA_exp_2,3,2,62,47,2,z,4,1212,484,cr,1,female,20,NA,NA,NA
EA_exp_2,3,2,63,73,2,z,4,1252,425,cr,1,female,20,NA,NA,NA
EA_exp_2,3,2,64,72,2,z,1,2378,372,cr,3,female,20,NA,NA,NA
EA_exp_2,3,2,65,30,2,z,4,1287,412,cr,1,female,20,NA,NA,NA
EA_exp_2,3,2,66,69,2,z,2,1453,350,cr,3,female,20,NA,NA,NA
EA_exp_2,3,2,67,25,2,z,2,1324,308,cr,3,female,20,NA,NA,NA
EA_exp_2,3,2,68,76,2,z,4,1242,785,cr,1,female,20,NA,NA,NA
EA_exp_2,3,2,69,111,1,m,4,1142,446,hit,6,female,20,q,older,1
EA_exp_2,3,2,70,163,1,m,4,862,565,hit,6,female,20,q,older,1
EA_exp_2,3,2,71,170,1,m,4,754,396,hit,6,female,20,p,younger,1
EA_exp_2,3,2,72,17,2,z,3,1548,601,cr,2,female,20,NA,NA,NA
EA_exp_2,3,2,73,91,2,z,4,1328,406,cr,1,female,20,NA,NA,NA
EA_exp_2,3,2,74,8,2,z,4,1286,462,cr,1,female,20,NA,NA,NA
EA_exp_2,3,2,75,174,1,z,1,1917,378,miss,3,female,20,q,older,1
EA_exp_2,3,2,76,113,1,m,4,941,448,hit,6,female,20,p,younger,1
EA_exp_2,3,2,77,125,1,m,4,699,365,hit,6,female,20,p,younger,1
EA_exp_2,3,2,78,90,2,z,4,1408,385,cr,1,female,20,NA,NA,NA
EA_exp_2,3,2,79,117,1,m,4,1221,364,hit,6,female,20,q,older,1
EA_exp_2,3,2,80,139,1,m,4,957,274,hit,6,female,20,p,younger,1
EA_exp_2,3,2,81,136,1,m,4,1096,310,hit,6,female,20,q,older,1
EA_exp_2,3,2,82,137,1,m,4,907,336,hit,6,female,20,p,younger,1
EA_exp_2,3,2,83,198,1,m,4,913,313,hit,6,female,20,p,younger,1
EA_exp_2,3,2,84,36,2,z,4,1284,452,cr,1,female,20,NA,NA,NA
EA_exp_2,3,2,85,154,1,z,4,1378,421,miss,1,female,20,p,younger,1
EA_exp_2,3,2,86,132,1,z,4,1123,418,miss,1,female,20,p,younger,1
EA_exp_2,3,2,87,177,1,m,4,2451,345,hit,6,female,20,q,older,1
EA_exp_2,3,2,88,155,1,z,4,1277,404,miss,1,female,20,q,older,1
EA_exp_2,3,2,89,188,1,m,4,1176,687,hit,6,female,20,q,older,1
EA_exp_2,3,2,90,185,1,m,4,1206,366,hit,6,female,20,p,younger,1
EA_exp_2,3,2,91,173,1,z,4,1537,366,miss,1,female,20,p,younger,1
EA_exp_2,3,2,92,101,1,m,4,993,690,hit,6,female,20,p,younger,1
EA_exp_2,3,2,93,82,2,z,4,1668,383,cr,1,female,20,NA,NA,NA
EA_exp_2,3,2,94,22,2,z,4,1359,404,cr,1,female,20,NA,NA,NA
EA_exp_2,3,2,95,108,1,m,4,1046,533,hit,6,female,20,q,older,1
EA_exp_2,3,2,96,127,1,m,4,1743,645,hit,6,female,20,q,older,1
EA_exp_2,3,2,97,33,2,z,4,1422,542,cr,1,female,20,NA,NA,NA
EA_exp_2,3,2,98,98,2,z,4,1239,449,cr,1,female,20,NA,NA,NA
EA_exp_2,3,2,99,18,2,z,4,1452,496,cr,1,female,20,NA,NA,NA
EA_exp_2,3,2,100,51,2,z,4,1564,440,cr,1,female,20,NA,NA,NA
EA_exp_2,3,2,101,93,2,z,4,1231,543,cr,1,female,20,NA,NA,NA
EA_exp_2,3,2,102,184,1,z,4,4013,484,miss,1,female,20,p,younger,1
EA_exp_2,3,2,103,178,1,m,4,3044,321,hit,6,female,20,q,older,1
EA_exp_2,3,2,104,42,2,z,4,1655,446,cr,1,female,20,NA,NA,NA
EA_exp_2,3,2,105,140,1,z,4,2076,403,miss,1,female,20,q,older,1
EA_exp_2,3,2,106,14,2,z,4,1442,436,cr,1,female,20,NA,NA,NA
EA_exp_2,3,2,107,192,1,m,4,2723,240,hit,6,female,20,q,older,1
EA_exp_2,3,2,108,32,2,z,4,1222,368,cr,1,female,20,NA,NA,NA
EA_exp_2,3,2,109,197,1,m,4,883,297,hit,6,female,20,q,older,1
EA_exp_2,3,2,110,121,1,m,4,943,242,hit,6,female,20,p,younger,1
EA_exp_2,3,2,111,143,1,m,4,780,196,hit,6,female,20,q,older,1
EA_exp_2,3,2,112,161,1,z,4,1454,382,miss,1,female,20,q,older,1
EA_exp_2,3,2,113,145,1,z,4,1167,363,miss,1,female,20,q,older,1
EA_exp_2,3,2,114,165,1,z,4,1262,1525,miss,1,female,20,q,older,1
EA_exp_2,3,2,115,16,2,z,1,2086,447,cr,3,female,20,NA,NA,NA
EA_exp_2,3,2,116,169,1,m,4,1036,511,hit,6,female,20,q,older,1
EA_exp_2,3,2,117,40,2,z,4,1476,442,cr,1,female,20,NA,NA,NA
EA_exp_2,3,2,118,46,2,z,4,1178,500,cr,1,female,20,NA,NA,NA
EA_exp_2,3,2,119,62,2,z,4,1375,644,cr,1,female,20,NA,NA,NA
EA_exp_2,3,2,120,199,1,z,1,2670,650,miss,3,female,20,q,older,1
EA_exp_2,3,2,121,68,2,z,4,1184,428,cr,1,female,20,NA,NA,NA
EA_exp_2,3,2,122,61,2,z,4,1755,383,cr,1,female,20,NA,NA,NA
EA_exp_2,3,2,123,63,2,z,4,1294,343,cr,1,female,20,NA,NA,NA
EA_exp_2,3,2,124,28,2,z,4,1177,421,cr,1,female,20,NA,NA,NA
EA_exp_2,3,2,125,133,1,m,1,1733,1290,hit,4,female,20,q,older,1
EA_exp_2,3,2,126,100,2,z,2,3321,1643,cr,3,female,20,NA,NA,NA
EA_exp_2,3,2,127,74,2,z,4,1323,448,cr,1,female,20,NA,NA,NA
EA_exp_2,3,2,128,122,1,m,4,878,630,hit,6,female,20,p,younger,1
EA_exp_2,3,2,129,144,1,m,4,971,401,hit,6,female,20,p,younger,1
EA_exp_2,3,2,130,80,2,z,4,1725,406,cr,1,female,20,NA,NA,NA
EA_exp_2,3,2,131,116,1,z,1,1400,1769,miss,3,female,20,q,older,1
EA_exp_2,3,2,132,105,1,m,4,933,679,hit,6,female,20,q,older,1
EA_exp_2,3,2,133,60,2,z,4,1248,421,cr,1,female,20,NA,NA,NA
EA_exp_2,3,2,134,181,1,z,1,1678,796,miss,3,female,20,q,older,1
EA_exp_2,3,2,135,99,2,z,2,2112,403,cr,3,female,20,NA,NA,NA
EA_exp_2,3,2,136,120,1,z,3,1811,517,miss,2,female,20,q,older,1
EA_exp_2,3,2,137,11,2,m,1,3249,617,fa,4,female,20,NA,NA,NA
EA_exp_2,3,2,138,159,1,m,4,1329,885,hit,6,female,20,p,younger,1
EA_exp_2,3,2,139,37,2,z,4,1379,438,cr,1,female,20,NA,NA,NA
EA_exp_2,3,2,140,131,1,m,4,2307,642,hit,6,female,20,p,younger,1
EA_exp_2,3,2,141,34,2,z,4,1338,381,cr,1,female,20,NA,NA,NA
EA_exp_2,3,2,142,88,2,z,4,1136,365,cr,1,female,20,NA,NA,NA
EA_exp_2,3,2,143,115,1,m,1,1756,867,hit,4,female,20,q,older,1
EA_exp_2,3,2,144,142,1,m,3,1744,1092,hit,5,female,20,q,older,1
EA_exp_2,3,2,145,81,2,z,4,2010,627,cr,1,female,20,NA,NA,NA
EA_exp_2,3,2,146,75,2,z,3,1178,806,cr,2,female,20,NA,NA,NA
EA_exp_2,3,2,147,123,1,m,4,1033,648,hit,6,female,20,q,older,1
EA_exp_2,3,2,148,157,1,z,3,1842,462,miss,2,female,20,q,older,1
EA_exp_2,3,2,149,130,1,m,4,1127,698,hit,6,female,20,q,older,1
EA_exp_2,3,2,150,107,1,z,3,1361,755,miss,2,female,20,q,older,1
EA_exp_2,3,2,151,102,1,m,1,2769,1071,hit,4,female,20,p,younger,1
EA_exp_2,3,2,152,9,2,z,2,1463,853,cr,3,female,20,NA,NA,NA
EA_exp_2,3,2,153,141,1,m,2,2003,1166,hit,4,female,20,p,younger,1
EA_exp_2,3,2,154,52,2,z,4,1983,1660,cr,1,female,20,NA,NA,NA
EA_exp_2,3,2,155,6,2,z,4,1418,396,cr,1,female,20,NA,NA,NA
EA_exp_2,3,2,156,85,2,z,4,2173,415,cr,1,female,20,NA,NA,NA
EA_exp_2,3,2,157,21,2,z,4,1202,762,cr,1,female,20,NA,NA,NA
EA_exp_2,3,2,158,3,2,z,4,1483,396,cr,1,female,20,NA,NA,NA
EA_exp_2,3,2,159,87,2,z,4,1035,1405,cr,1,female,20,NA,NA,NA
EA_exp_2,3,2,160,148,1,m,4,1029,263,hit,6,female,20,q,older,1
EA_exp_2,3,2,161,53,2,z,4,1359,432,cr,1,female,20,NA,NA,NA
EA_exp_2,3,2,162,54,2,z,4,1344,372,cr,1,female,20,NA,NA,NA
EA_exp_2,3,2,163,195,1,m,4,1015,424,hit,6,female,20,p,younger,1
EA_exp_2,3,2,164,150,1,m,4,1014,313,hit,6,female,20,p,younger,1
EA_exp_2,3,2,165,172,1,m,4,703,316,hit,6,female,20,q,older,1
EA_exp_2,3,2,166,29,2,z,1,1630,345,cr,3,female,20,NA,NA,NA
EA_exp_2,3,2,167,5,2,z,4,1156,408,cr,1,female,20,NA,NA,NA
EA_exp_2,3,2,168,149,1,m,4,1096,472,hit,6,female,20,q,older,1
EA_exp_2,3,2,169,183,1,z,1,1349,472,miss,3,female,20,q,older,1
EA_exp_2,3,2,170,168,1,m,2,1080,1510,hit,4,female,20,p,younger,1
EA_exp_2,3,2,171,193,1,m,2,1963,485,hit,4,female,20,q,older,1
EA_exp_2,3,2,172,156,1,m,4,1074,753,hit,6,female,20,p,younger,1
EA_exp_2,3,2,173,106,1,m,4,2484,1196,hit,6,female,20,q,older,1
EA_exp_2,3,2,174,176,1,m,4,1231,660,hit,6,female,20,q,older,1
EA_exp_2,3,2,175,126,1,m,4,763,310,hit,6,female,20,p,younger,1
EA_exp_2,3,2,176,15,2,z,1,1832,812,cr,3,female,20,NA,NA,NA
EA_exp_2,3,2,177,94,2,z,3,1309,417,cr,2,female,20,NA,NA,NA
EA_exp_2,3,2,178,83,2,z,4,1632,491,cr,1,female,20,NA,NA,NA
EA_exp_2,3,2,179,104,1,m,1,2134,317,hit,4,female,20,p,younger,1
EA_exp_2,3,2,180,86,2,z,1,2174,355,cr,3,female,20,NA,NA,NA
EA_exp_2,3,2,181,138,1,m,4,1009,583,hit,6,female,20,q,older,1
EA_exp_2,3,2,182,158,1,m,4,1871,735,hit,6,female,20,q,older,1
EA_exp_2,3,2,183,119,1,z,3,1315,681,miss,2,female,20,p,younger,1
EA_exp_2,3,2,184,38,2,z,4,1148,570,cr,1,female,20,NA,NA,NA
EA_exp_2,3,2,185,179,1,m,1,1462,419,hit,4,female,20,q,older,1
EA_exp_2,3,2,186,189,1,z,1,1651,764,miss,3,female,20,q,older,1
EA_exp_2,3,2,187,162,1,m,4,1101,748,hit,6,female,20,p,younger,1
EA_exp_2,3,2,188,129,1,z,1,2864,487,miss,3,female,20,p,younger,1
EA_exp_2,3,2,189,45,2,z,4,1717,377,cr,1,female,20,NA,NA,NA
EA_exp_2,3,2,190,78,2,z,4,1340,367,cr,1,female,20,NA,NA,NA
EA_exp_2,3,2,191,200,1,m,4,1346,597,hit,6,female,20,q,older,1
EA_exp_2,3,2,192,41,2,z,4,1246,391,cr,1,female,20,NA,NA,NA
EA_exp_2,3,2,193,35,2,z,4,1402,395,cr,1,female,20,NA,NA,NA
EA_exp_2,3,2,194,79,2,z,4,1435,364,cr,1,female,20,NA,NA,NA
EA_exp_2,3,2,195,65,2,z,4,1343,386,cr,1,female,20,NA,NA,NA
EA_exp_2,3,2,196,182,1,m,2,1574,1311,hit,4,female,20,q,older,1
EA_exp_2,3,2,197,70,2,z,4,1405,590,cr,1,female,20,NA,NA,NA
EA_exp_2,3,2,198,64,2,z,4,1367,731,cr,1,female,20,NA,NA,NA
EA_exp_2,3,2,199,77,2,m,1,1887,622,fa,4,female,20,NA,NA,NA
EA_exp_2,3,2,200,164,1,m,4,1041,325,hit,6,female,20,p,younger,1
EA_exp_2,4,1,1,10,1,m,4,2845,2208,hit,6,female,25,p,younger,1
EA_exp_2,4,1,2,91,1,m,4,2840,1088,hit,6,female,25,p,younger,1
EA_exp_2,4,1,3,151,2,z,2,4168,1401,cr,3,female,25,NA,NA,NA
EA_exp_2,4,1,4,124,2,z,3,2081,1561,cr,2,female,25,NA,NA,NA
EA_exp_2,4,1,5,88,1,m,3,2139,1055,hit,5,female,25,p,younger,1
EA_exp_2,4,1,6,116,2,z,4,1892,1395,cr,1,female,25,NA,NA,NA
EA_exp_2,4,1,7,140,2,z,3,2239,1165,cr,2,female,25,NA,NA,NA
EA_exp_2,4,1,8,169,2,z,2,1855,1072,cr,3,female,25,NA,NA,NA
EA_exp_2,4,1,9,56,1,m,4,1586,848,hit,6,female,25,p,younger,1
EA_exp_2,4,1,10,7,1,m,2,2781,921,hit,4,female,25,p,younger,1
EA_exp_2,4,1,11,14,1,m,4,1428,567,hit,6,female,25,q,older,1
EA_exp_2,4,1,12,33,1,z,4,1311,790,miss,1,female,25,p,younger,1
EA_exp_2,4,1,13,59,1,m,4,1381,714,hit,6,female,25,p,younger,1
EA_exp_2,4,1,14,145,2,z,3,2957,545,cr,2,female,25,NA,NA,NA
EA_exp_2,4,1,15,123,2,z,4,1599,615,cr,1,female,25,NA,NA,NA
EA_exp_2,4,1,16,97,1,m,2,1534,748,hit,4,female,25,p,younger,1
EA_exp_2,4,1,17,161,2,z,2,1843,847,cr,3,female,25,NA,NA,NA
EA_exp_2,4,1,18,194,2,z,2,1582,729,cr,3,female,25,NA,NA,NA
EA_exp_2,4,1,19,136,2,m,2,1310,771,fa,4,female,25,NA,NA,NA
EA_exp_2,4,1,20,177,2,m,1,1367,1096,fa,4,female,25,NA,NA,NA
EA_exp_2,4,1,21,62,1,z,3,1835,590,miss,2,female,25,p,younger,1
EA_exp_2,4,1,22,61,1,m,2,1169,642,hit,4,female,25,p,younger,1
EA_exp_2,4,1,23,46,1,m,4,1416,523,hit,6,female,25,q,older,1
EA_exp_2,4,1,24,1,1,z,2,2615,584,miss,3,female,25,q,older,1
EA_exp_2,4,1,25,39,1,z,3,1186,588,miss,2,female,25,p,younger,1
EA_exp_2,4,1,26,21,1,m,4,1424,486,hit,6,female,25,q,older,1
EA_exp_2,4,1,27,41,1,m,2,1317,553,hit,4,female,25,q,older,1
EA_exp_2,4,1,28,143,2,z,3,1540,543,cr,2,female,25,NA,NA,NA
EA_exp_2,4,1,29,186,2,z,2,3221,580,cr,3,female,25,NA,NA,NA
EA_exp_2,4,1,30,179,2,z,4,1340,529,cr,1,female,25,NA,NA,NA
EA_exp_2,4,1,31,24,1,m,2,2219,447,hit,4,female,25,q,older,1
EA_exp_2,4,1,32,77,1,m,4,1615,600,hit,6,female,25,q,older,1
EA_exp_2,4,1,33,38,1,m,1,2398,506,hit,4,female,25,p,younger,1
EA_exp_2,4,1,34,141,2,z,2,2583,537,cr,3,female,25,NA,NA,NA
EA_exp_2,4,1,35,167,2,z,3,1234,557,cr,2,female,25,NA,NA,NA
EA_exp_2,4,1,36,40,1,m,4,1272,479,hit,6,female,25,q,older,1
EA_exp_2,4,1,37,103,2,z,2,1678,499,cr,3,female,25,NA,NA,NA
EA_exp_2,4,1,38,90,1,m,4,1537,493,hit,6,female,25,q,older,1
EA_exp_2,4,1,39,28,1,z,1,2731,504,miss,3,female,25,p,younger,1
EA_exp_2,4,1,40,105,2,z,4,1377,551,cr,1,female,25,NA,NA,NA
EA_exp_2,4,1,41,74,1,m,4,1505,495,hit,6,female,25,q,older,1
EA_exp_2,4,1,42,185,2,z,2,1371,528,cr,3,female,25,NA,NA,NA
EA_exp_2,4,1,43,199,2,m,4,1469,394,fa,6,female,25,NA,NA,NA
EA_exp_2,4,1,44,64,1,m,4,1033,445,hit,6,female,25,q,older,1
EA_exp_2,4,1,45,129,2,m,2,1180,503,fa,4,female,25,NA,NA,NA
EA_exp_2,4,1,46,122,2,z,3,1396,486,cr,2,female,25,NA,NA,NA
EA_exp_2,4,1,47,22,1,m,4,990,405,hit,6,female,25,q,older,1
EA_exp_2,4,1,48,189,2,z,2,1300,476,cr,3,female,25,NA,NA,NA
EA_exp_2,4,1,49,70,1,m,4,1017,427,hit,6,female,25,q,older,1
EA_exp_2,4,1,50,51,1,m,1,1561,422,hit,4,female,25,p,younger,1
EA_exp_2,4,1,51,148,2,z,4,1303,524,cr,1,female,25,NA,NA,NA
EA_exp_2,4,1,52,6,1,z,1,1416,617,miss,3,female,25,q,older,1
EA_exp_2,4,1,53,175,2,z,3,2048,3161,cr,2,female,25,NA,NA,NA
EA_exp_2,4,1,54,131,2,m,2,1530,409,fa,4,female,25,NA,NA,NA
EA_exp_2,4,1,55,135,2,z,4,1257,561,cr,1,female,25,NA,NA,NA
EA_exp_2,4,1,56,134,2,m,2,1598,661,fa,4,female,25,NA,NA,NA
EA_exp_2,4,1,57,155,2,z,4,1163,487,cr,1,female,25,NA,NA,NA
EA_exp_2,4,1,58,133,2,z,2,1462,467,cr,3,female,25,NA,NA,NA
EA_exp_2,4,1,59,146,2,z,2,965,405,cr,3,female,25,NA,NA,NA
EA_exp_2,4,1,60,126,2,z,3,1160,434,cr,2,female,25,NA,NA,NA
EA_exp_2,4,1,61,95,1,m,4,1184,348,hit,6,female,25,p,younger,1
EA_exp_2,4,1,62,119,2,z,3,1228,456,cr,2,female,25,NA,NA,NA
EA_exp_2,4,1,63,26,1,m,4,1513,404,hit,6,female,25,q,older,1
EA_exp_2,4,1,64,9,1,z,2,1220,429,miss,3,female,25,p,younger,1
EA_exp_2,4,1,65,15,1,z,2,2396,440,miss,3,female,25,p,younger,1
EA_exp_2,4,1,66,19,1,m,4,1158,386,hit,6,female,25,p,younger,1
EA_exp_2,4,1,67,166,2,m,3,1218,909,fa,5,female,25,NA,NA,NA
EA_exp_2,4,1,68,58,1,m,4,952,381,hit,6,female,25,q,older,1
EA_exp_2,4,1,69,87,1,m,4,1281,295,hit,6,female,25,q,older,1
EA_exp_2,4,1,70,172,2,z,2,1292,402,cr,3,female,25,NA,NA,NA
EA_exp_2,4,1,71,178,2,z,2,1475,353,cr,3,female,25,NA,NA,NA
EA_exp_2,4,1,72,13,1,z,2,1013,373,miss,3,female,25,p,younger,1
EA_exp_2,4,1,73,192,2,z,2,2533,460,cr,3,female,25,NA,NA,NA
EA_exp_2,4,1,74,120,2,z,2,1101,424,cr,3,female,25,NA,NA,NA
EA_exp_2,4,1,75,49,1,m,4,1096,278,hit,6,female,25,p,younger,1
EA_exp_2,4,1,76,92,1,m,4,973,303,hit,6,female,25,p,younger,1
EA_exp_2,4,1,77,69,1,m,4,822,318,hit,6,female,25,q,older,1
EA_exp_2,4,1,78,196,2,z,2,1389,403,cr,3,female,25,NA,NA,NA
EA_exp_2,4,1,79,25,1,m,4,1174,287,hit,6,female,25,p,younger,1
EA_exp_2,4,1,80,43,1,m,3,998,455,hit,5,female,25,q,older,1
EA_exp_2,4,1,81,106,2,z,2,1301,506,cr,3,female,25,NA,NA,NA
EA_exp_2,4,1,82,100,1,m,2,1881,294,hit,4,female,25,p,younger,1
EA_exp_2,4,1,83,182,2,z,3,1436,1101,cr,2,female,25,NA,NA,NA
EA_exp_2,4,1,84,55,1,m,4,1122,334,hit,6,female,25,q,older,1
EA_exp_2,4,1,85,54,1,m,3,1346,358,hit,5,female,25,p,younger,1
EA_exp_2,4,1,86,171,2,z,2,1384,411,cr,3,female,25,NA,NA,NA
EA_exp_2,4,1,87,181,2,z,3,1212,420,cr,2,female,25,NA,NA,NA
EA_exp_2,4,1,88,195,2,z,4,1445,420,cr,1,female,25,NA,NA,NA
EA_exp_2,4,1,89,132,2,z,3,2101,843,cr,2,female,25,NA,NA,NA
EA_exp_2,4,1,90,114,2,m,4,1261,290,fa,6,female,25,NA,NA,NA
EA_exp_2,4,1,91,8,1,m,4,1000,313,hit,6,female,25,p,younger,1
EA_exp_2,4,1,92,83,1,z,2,1693,644,miss,3,female,25,q,older,1
EA_exp_2,4,1,93,144,2,z,2,1179,438,cr,3,female,25,NA,NA,NA
EA_exp_2,4,1,94,156,2,z,3,1223,1407,cr,2,female,25,NA,NA,NA
EA_exp_2,4,1,95,149,2,m,2,1704,461,fa,4,female,25,NA,NA,NA
EA_exp_2,4,1,96,184,2,z,2,1260,402,cr,3,female,25,NA,NA,NA
EA_exp_2,4,1,97,160,2,z,4,1894,674,cr,1,female,25,NA,NA,NA
EA_exp_2,4,1,98,96,1,m,1,1754,524,hit,4,female,25,q,older,1
EA_exp_2,4,1,99,50,1,m,2,2505,398,hit,4,female,25,q,older,1
EA_exp_2,4,1,100,164,2,z,3,1279,614,cr,2,female,25,NA,NA,NA
EA_exp_2,4,1,101,67,1,m,2,1761,530,hit,4,female,25,p,younger,1
EA_exp_2,4,1,102,29,1,m,4,1103,315,hit,6,female,25,q,older,1
EA_exp_2,4,1,103,81,1,z,2,1569,268,miss,3,female,25,q,older,1
EA_exp_2,4,1,104,44,1,m,2,2242,241,hit,4,female,25,p,younger,1
EA_exp_2,4,1,105,147,2,z,3,1291,286,cr,2,female,25,NA,NA,NA
EA_exp_2,4,1,106,188,2,z,2,1794,262,cr,3,female,25,NA,NA,NA
EA_exp_2,4,1,107,115,2,z,2,1120,282,cr,3,female,25,NA,NA,NA
EA_exp_2,4,1,108,16,1,m,2,1809,434,hit,4,female,25,q,older,1
EA_exp_2,4,1,109,84,1,m,1,1811,403,hit,4,female,25,p,younger,1
EA_exp_2,4,1,110,170,2,z,1,2866,858,cr,3,female,25,NA,NA,NA
EA_exp_2,4,1,111,93,1,m,4,1189,259,hit,6,female,25,p,younger,1
EA_exp_2,4,1,112,12,1,m,3,1354,237,hit,5,female,25,q,older,1
EA_exp_2,4,1,113,117,2,m,2,1496,211,fa,4,female,25,NA,NA,NA
EA_exp_2,4,1,114,180,2,z,2,1663,242,cr,3,female,25,NA,NA,NA
EA_exp_2,4,1,115,200,2,z,2,797,324,cr,3,female,25,NA,NA,NA
EA_exp_2,4,1,116,63,1,z,2,683,231,miss,3,female,25,q,older,1
EA_exp_2,4,1,117,102,2,z,3,972,1009,cr,2,female,25,NA,NA,NA
EA_exp_2,4,1,118,34,1,m,3,2109,223,hit,5,female,25,p,younger,1
EA_exp_2,4,1,119,158,2,z,3,1317,317,cr,2,female,25,NA,NA,NA
EA_exp_2,4,1,120,130,2,z,3,961,324,cr,2,female,25,NA,NA,NA
EA_exp_2,4,1,121,150,2,z,3,1047,488,cr,2,female,25,NA,NA,NA
EA_exp_2,4,1,122,127,2,z,2,949,426,cr,3,female,25,NA,NA,NA
EA_exp_2,4,1,123,48,1,z,2,1018,315,miss,3,female,25,q,older,1
EA_exp_2,4,1,124,45,1,m,2,1123,317,hit,4,female,25,q,older,1
EA_exp_2,4,1,125,190,2,z,3,1104,302,cr,2,female,25,NA,NA,NA
EA_exp_2,4,1,126,78,1,z,4,1013,452,miss,1,female,25,p,younger,1
EA_exp_2,4,1,127,65,1,m,3,1782,311,hit,5,female,25,p,younger,1
EA_exp_2,4,1,128,191,2,z,1,1676,962,cr,3,female,25,NA,NA,NA
EA_exp_2,4,1,129,193,2,z,1,1707,497,cr,3,female,25,NA,NA,NA
EA_exp_2,4,1,130,113,2,z,3,1277,405,cr,2,female,25,NA,NA,NA
EA_exp_2,4,1,131,31,1,m,4,1336,394,hit,6,female,25,p,younger,1
EA_exp_2,4,1,132,173,2,z,3,1277,451,cr,2,female,25,NA,NA,NA
EA_exp_2,4,1,133,3,1,m,3,1539,383,hit,5,female,25,p,younger,1
EA_exp_2,4,1,134,53,1,z,2,1841,289,miss,3,female,25,p,younger,1
EA_exp_2,4,1,135,159,2,z,3,1382,265,cr,2,female,25,NA,NA,NA
EA_exp_2,4,1,136,187,2,z,2,1327,291,cr,3,female,25,NA,NA,NA
EA_exp_2,4,1,137,66,1,z,1,2218,634,miss,3,female,25,q,older,1
EA_exp_2,4,1,138,174,2,z,1,1280,1385,cr,3,female,25,NA,NA,NA
EA_exp_2,4,1,139,86,1,m,2,1873,591,hit,4,female,25,q,older,1
EA_exp_2,4,1,140,118,2,z,3,1237,418,cr,2,female,25,NA,NA,NA
EA_exp_2,4,1,141,142,2,z,4,1071,496,cr,1,female,25,NA,NA,NA
EA_exp_2,4,1,142,168,2,z,4,1087,444,cr,1,female,25,NA,NA,NA
EA_exp_2,4,1,143,42,1,z,3,2238,412,miss,2,female,25,q,older,1
EA_exp_2,4,1,144,36,1,m,2,1600,359,hit,4,female,25,p,younger,1
EA_exp_2,4,1,145,198,2,m,2,6057,337,fa,4,female,25,NA,NA,NA
EA_exp_2,4,1,146,139,2,z,4,1234,380,cr,1,female,25,NA,NA,NA
EA_exp_2,4,1,147,89,1,m,2,1583,729,hit,4,female,25,p,younger,1
EA_exp_2,4,1,148,137,2,z,2,1853,381,cr,3,female,25,NA,NA,NA
EA_exp_2,4,1,149,4,1,z,2,2225,352,miss,3,female,25,p,younger,1
EA_exp_2,4,1,150,98,1,m,4,1299,218,hit,6,female,25,q,older,1
EA_exp_2,4,1,151,183,2,z,2,1476,319,cr,3,female,25,NA,NA,NA
EA_exp_2,4,1,152,27,1,z,2,1124,256,miss,3,female,25,q,older,1
EA_exp_2,4,1,153,11,1,m,2,1238,574,hit,4,female,25,q,older,1
EA_exp_2,4,1,154,154,2,z,2,1275,271,cr,3,female,25,NA,NA,NA
EA_exp_2,4,1,155,52,1,z,2,1253,301,miss,3,female,25,p,younger,1
EA_exp_2,4,1,156,18,1,m,2,1828,307,hit,4,female,25,p,younger,1
EA_exp_2,4,1,157,60,1,m,2,1336,236,hit,4,female,25,p,younger,1
EA_exp_2,4,1,158,80,1,m,2,1671,314,hit,4,female,25,p,younger,1
EA_exp_2,4,1,159,72,1,z,2,1602,265,miss,3,female,25,q,older,1
EA_exp_2,4,1,160,112,2,z,3,1186,794,cr,2,female,25,NA,NA,NA
EA_exp_2,4,1,161,79,1,m,4,1261,354,hit,6,female,25,p,younger,1
EA_exp_2,4,1,162,162,2,z,2,2213,295,cr,3,female,25,NA,NA,NA
EA_exp_2,4,1,163,197,2,z,2,1181,310,cr,3,female,25,NA,NA,NA
EA_exp_2,4,1,164,157,2,z,2,1293,241,cr,3,female,25,NA,NA,NA
EA_exp_2,4,1,165,35,1,z,3,906,1631,miss,2,female,25,q,older,1
EA_exp_2,4,1,166,110,2,z,3,1662,758,cr,2,female,25,NA,NA,NA
EA_exp_2,4,1,167,101,2,z,4,1483,407,cr,1,female,25,NA,NA,NA
EA_exp_2,4,1,168,85,1,z,3,1676,302,miss,2,female,25,q,older,1
EA_exp_2,4,1,169,73,1,z,4,1093,418,miss,1,female,25,None,NA,1
EA_exp_2,4,1,170,68,1,m,4,1890,415,hit,6,female,25,q,older,1
EA_exp_2,4,1,171,30,1,z,2,2158,307,miss,3,female,25,p,younger,1
EA_exp_2,4,1,172,75,1,z,2,809,273,miss,3,female,25,q,older,1
EA_exp_2,4,1,173,163,2,z,3,825,817,cr,2,female,25,NA,NA,NA
EA_exp_2,4,1,174,20,1,m,4,1200,506,hit,6,female,25,q,older,1
EA_exp_2,4,1,175,2,1,m,2,1814,360,hit,4,female,25,q,older,1
EA_exp_2,4,1,176,125,2,z,4,1675,401,cr,1,female,25,NA,NA,NA
EA_exp_2,4,1,177,176,2,z,3,1427,643,cr,2,female,25,NA,NA,NA
EA_exp_2,4,1,178,153,2,z,2,1852,298,cr,3,female,25,NA,NA,NA
EA_exp_2,4,1,179,47,1,m,3,2256,271,hit,5,female,25,q,older,1
EA_exp_2,4,1,180,109,2,z,4,1429,421,cr,1,female,25,NA,NA,NA
EA_exp_2,4,1,181,5,1,m,2,1538,257,hit,4,female,25,q,older,1
EA_exp_2,4,1,182,138,2,m,2,1367,300,fa,4,female,25,NA,NA,NA
EA_exp_2,4,1,183,32,1,z,3,1584,347,miss,2,female,25,q,older,1
EA_exp_2,4,1,184,165,2,z,3,801,328,cr,2,female,25,NA,NA,NA
EA_exp_2,4,1,185,108,2,z,3,778,343,cr,2,female,25,NA,NA,NA
EA_exp_2,4,1,186,152,2,z,2,1324,255,cr,3,female,25,NA,NA,NA
EA_exp_2,4,1,187,17,1,m,2,1751,745,hit,4,female,25,q,older,1
EA_exp_2,4,1,188,82,1,z,3,1920,826,miss,2,female,25,p,younger,1
EA_exp_2,4,1,189,107,2,z,3,1164,341,cr,2,female,25,NA,NA,NA
EA_exp_2,4,1,190,121,2,z,4,698,743,cr,1,female,25,NA,NA,NA
EA_exp_2,4,1,191,99,1,m,3,1563,326,hit,5,female,25,p,younger,1
EA_exp_2,4,1,192,128,2,m,2,2508,320,fa,4,female,25,NA,NA,NA
EA_exp_2,4,1,193,94,1,m,4,1158,271,hit,6,female,25,p,younger,1
EA_exp_2,4,1,194,71,1,m,3,1268,204,hit,5,female,25,q,older,1
EA_exp_2,4,1,195,57,1,z,2,2424,286,miss,3,female,25,p,younger,1
EA_exp_2,4,1,196,37,1,z,1,2357,719,miss,3,female,25,p,younger,1
EA_exp_2,4,1,197,104,2,z,4,1347,1271,cr,1,female,25,NA,NA,NA
EA_exp_2,4,1,198,76,1,m,2,1414,374,hit,4,female,25,q,older,1
EA_exp_2,4,1,199,23,1,m,2,1017,282,hit,4,female,25,q,older,1
EA_exp_2,4,1,200,111,2,z,2,2016,1018,cr,3,female,25,NA,NA,NA
EA_exp_2,5,1,1,124,2,m,4,3088,1735,fa,6,female,19,NA,NA,NA
EA_exp_2,5,1,2,195,2,m,2,5410,1459,fa,4,female,19,NA,NA,NA
EA_exp_2,5,1,3,190,2,z,2,2715,2007,cr,3,female,19,NA,NA,NA
EA_exp_2,5,1,4,18,1,z,3,4488,1918,miss,2,female,19,p,younger,1
EA_exp_2,5,1,5,79,1,m,4,1842,1684,hit,6,female,19,p,younger,1
EA_exp_2,5,1,6,1,1,z,2,2224,2002,miss,3,female,19,q,older,1
EA_exp_2,5,1,7,96,1,z,1,5010,1327,miss,3,female,19,q,older,1
EA_exp_2,5,1,8,191,2,z,4,2143,1347,cr,1,female,19,NA,NA,NA
EA_exp_2,5,1,9,66,1,m,4,1417,1055,hit,6,female,19,q,older,1
EA_exp_2,5,1,10,94,1,z,2,2327,978,miss,3,female,19,q,older,1
EA_exp_2,5,1,11,194,2,z,2,1806,1100,cr,3,female,19,NA,NA,NA
EA_exp_2,5,1,12,148,2,m,3,4307,1168,fa,5,female,19,NA,NA,NA
EA_exp_2,5,1,13,16,1,m,3,1841,562,hit,5,female,19,p,younger,1
EA_exp_2,5,1,14,31,1,m,3,1710,2402,hit,5,female,19,q,older,1
EA_exp_2,5,1,15,200,2,z,2,1907,801,cr,3,female,19,NA,NA,NA
EA_exp_2,5,1,16,93,1,m,4,1408,673,hit,6,female,19,p,younger,1
EA_exp_2,5,1,17,57,1,m,4,1499,646,hit,6,female,19,p,younger,1
EA_exp_2,5,1,18,36,1,m,3,1408,958,hit,5,female,19,p,younger,1
EA_exp_2,5,1,19,158,2,z,4,1868,1400,cr,1,female,19,NA,NA,NA
EA_exp_2,5,1,20,156,2,z,3,1778,596,cr,2,female,19,NA,NA,NA
EA_exp_2,5,1,21,143,2,z,3,1485,780,cr,2,female,19,NA,NA,NA
EA_exp_2,5,1,22,21,1,m,1,1566,1129,hit,4,female,19,q,older,1
EA_exp_2,5,1,23,134,2,m,3,1469,621,fa,5,female,19,NA,NA,NA
EA_exp_2,5,1,24,9,1,m,3,1126,1009,hit,5,female,19,p,younger,1
EA_exp_2,5,1,25,187,2,z,1,2391,644,cr,3,female,19,NA,NA,NA
EA_exp_2,5,1,26,164,2,z,3,4635,1533,cr,2,female,19,NA,NA,NA
EA_exp_2,5,1,27,51,1,z,4,1410,545,miss,1,female,19,q,older,1
EA_exp_2,5,1,28,71,1,m,4,2316,506,hit,6,female,19,q,older,1
EA_exp_2,5,1,29,91,1,z,2,1833,631,miss,3,female,19,p,younger,1
EA_exp_2,5,1,30,10,1,m,2,2432,440,hit,4,female,19,p,younger,1
EA_exp_2,5,1,31,102,2,m,2,1382,698,fa,4,female,19,NA,NA,NA
EA_exp_2,5,1,32,142,2,z,4,1501,590,cr,1,female,19,NA,NA,NA
EA_exp_2,5,1,33,44,1,m,4,1380,553,hit,6,female,19,p,younger,1
EA_exp_2,5,1,34,70,1,m,4,1206,559,hit,6,female,19,q,older,1
EA_exp_2,5,1,35,88,1,z,3,1590,979,miss,2,female,19,p,younger,1
EA_exp_2,5,1,36,182,2,z,3,5549,1048,cr,2,female,19,NA,NA,NA
EA_exp_2,5,1,37,5,1,z,4,2545,596,miss,1,female,19,q,older,1
EA_exp_2,5,1,38,137,2,z,3,1679,388,cr,2,female,19,NA,NA,NA
EA_exp_2,5,1,39,163,2,z,4,1541,562,cr,1,female,19,NA,NA,NA
EA_exp_2,5,1,40,132,2,z,4,2239,413,cr,1,female,19,NA,NA,NA
EA_exp_2,5,1,41,145,2,z,4,1310,468,cr,1,female,19,NA,NA,NA
EA_exp_2,5,1,42,127,2,z,4,1296,535,cr,1,female,19,NA,NA,NA
EA_exp_2,5,1,43,176,2,z,4,1443,546,cr,1,female,19,NA,NA,NA
EA_exp_2,5,1,44,129,2,z,4,1405,656,cr,1,female,19,NA,NA,NA
EA_exp_2,5,1,45,42,1,m,3,1989,960,hit,5,female,19,q,older,1
EA_exp_2,5,1,46,196,2,z,3,1548,823,cr,2,female,19,NA,NA,NA
EA_exp_2,5,1,47,162,2,z,4,1508,612,cr,1,female,19,NA,NA,NA
EA_exp_2,5,1,48,106,2,z,4,1468,556,cr,1,female,19,NA,NA,NA
EA_exp_2,5,1,49,116,2,z,4,1560,498,cr,1,female,19,NA,NA,NA
EA_exp_2,5,1,50,103,2,z,4,2031,520,cr,1,female,19,NA,NA,NA
EA_exp_2,5,1,51,112,2,z,4,1461,483,cr,1,female,19,NA,NA,NA
EA_exp_2,5,1,52,38,1,m,4,2063,712,hit,6,female,19,q,older,1
EA_exp_2,5,1,53,157,2,z,3,1596,551,cr,2,female,19,NA,NA,NA
EA_exp_2,5,1,54,154,2,z,3,1316,487,cr,2,female,19,NA,NA,NA
EA_exp_2,5,1,55,67,1,z,3,2183,1271,miss,2,female,19,p,younger,1
EA_exp_2,5,1,56,178,2,m,2,2385,368,fa,4,female,19,NA,NA,NA
EA_exp_2,5,1,57,49,1,m,3,1008,1187,hit,5,female,19,p,younger,1
EA_exp_2,5,1,58,166,2,z,3,2020,989,cr,2,female,19,NA,NA,NA
EA_exp_2,5,1,59,186,2,z,3,2485,605,cr,2,female,19,NA,NA,NA
EA_exp_2,5,1,60,174,2,m,2,2085,989,fa,4,female,19,NA,NA,NA
EA_exp_2,5,1,61,78,1,m,3,1831,374,hit,5,female,19,p,younger,1
EA_exp_2,5,1,62,29,1,m,4,1402,394,hit,6,female,19,p,younger,1
EA_exp_2,5,1,63,68,1,m,4,1211,469,hit,6,female,19,q,older,1
EA_exp_2,5,1,64,151,2,z,4,1892,449,cr,1,female,19,NA,NA,NA
EA_exp_2,5,1,65,40,1,m,4,1331,469,hit,6,female,19,q,older,1
EA_exp_2,5,1,66,2,1,m,4,1333,439,hit,6,female,19,p,younger,1
EA_exp_2,5,1,67,81,1,z,3,1257,495,miss,2,female,19,q,older,1
EA_exp_2,5,1,68,181,2,z,3,1482,411,cr,2,female,19,NA,NA,NA
EA_exp_2,5,1,69,118,2,z,3,1949,455,cr,2,female,19,NA,NA,NA
EA_exp_2,5,1,70,150,2,z,2,2164,2122,cr,3,female,19,NA,NA,NA
EA_exp_2,5,1,71,89,1,z,3,1255,526,miss,2,female,19,p,younger,1
EA_exp_2,5,1,72,20,1,m,2,1722,383,hit,4,female,19,q,older,1
EA_exp_2,5,1,73,97,1,m,4,1249,376,hit,6,female,19,p,younger,1
EA_exp_2,5,1,74,35,1,m,4,1373,509,hit,6,female,19,q,older,1
EA_exp_2,5,1,75,177,2,z,3,1597,453,cr,2,female,19,NA,NA,NA
EA_exp_2,5,1,76,122,2,z,4,1395,502,cr,1,female,19,NA,NA,NA
EA_exp_2,5,1,77,149,2,z,4,1267,410,cr,1,female,19,NA,NA,NA
EA_exp_2,5,1,78,141,2,z,2,2953,2030,cr,3,female,19,NA,NA,NA
EA_exp_2,5,1,79,15,1,z,2,1278,484,miss,3,female,19,p,younger,1
EA_exp_2,5,1,80,28,1,m,4,1553,462,hit,6,female,19,p,younger,1
EA_exp_2,5,1,81,152,2,z,3,1821,367,cr,2,female,19,NA,NA,NA
EA_exp_2,5,1,82,108,2,z,3,1394,467,cr,2,female,19,NA,NA,NA
EA_exp_2,5,1,83,75,1,m,2,1728,197,hit,4,female,19,q,older,1
EA_exp_2,5,1,84,33,1,z,2,2301,524,miss,3,female,19,p,younger,1
EA_exp_2,5,1,85,180,2,z,2,7707,509,cr,3,female,19,NA,NA,NA
EA_exp_2,5,1,86,25,1,z,2,1421,876,miss,3,female,19,p,younger,1
EA_exp_2,5,1,87,119,2,z,4,1354,670,cr,1,female,19,NA,NA,NA
EA_exp_2,5,1,88,153,2,z,3,1575,655,cr,2,female,19,NA,NA,NA
EA_exp_2,5,1,89,59,1,z,3,1416,583,miss,2,female,19,p,younger,1
EA_exp_2,5,1,90,120,2,m,2,2081,759,fa,4,female,19,NA,NA,NA
EA_exp_2,5,1,91,39,1,m,4,1339,350,hit,6,female,19,p,younger,1
EA_exp_2,5,1,92,90,1,m,2,1326,422,hit,4,female,19,q,older,1
EA_exp_2,5,1,93,172,2,z,3,1407,518,cr,2,female,19,NA,NA,NA
EA_exp_2,5,1,94,167,2,z,3,1203,445,cr,2,female,19,NA,NA,NA
EA_exp_2,5,1,95,155,2,z,4,1037,524,cr,1,female,19,NA,NA,NA
EA_exp_2,5,1,96,11,1,m,3,1688,720,hit,5,female,19,q,older,1
EA_exp_2,5,1,97,14,1,m,2,1876,371,hit,4,female,19,q,older,1
EA_exp_2,5,1,98,65,1,z,4,1560,527,miss,1,female,19,p,younger,1
EA_exp_2,5,1,99,34,1,m,4,1691,706,hit,6,female,19,p,younger,1
EA_exp_2,5,1,100,63,1,m,4,3174,368,hit,6,female,19,q,older,1
EA_exp_2,5,1,101,56,1,m,2,1302,552,hit,4,female,19,p,younger,1
EA_exp_2,5,1,102,86,1,m,2,1429,260,hit,4,female,19,q,older,1
EA_exp_2,5,1,103,7,1,z,3,1275,658,miss,2,female,19,p,younger,1
EA_exp_2,5,1,104,41,1,z,3,1097,518,miss,2,female,19,q,older,1
EA_exp_2,5,1,105,147,2,z,4,1300,568,cr,1,female,19,NA,NA,NA
EA_exp_2,5,1,106,138,2,z,2,4896,360,cr,3,female,19,NA,NA,NA
EA_exp_2,5,1,107,173,2,z,3,1258,530,cr,2,female,19,NA,NA,NA
EA_exp_2,5,1,108,54,1,z,3,1196,375,miss,2,female,19,q,older,1
EA_exp_2,5,1,109,98,1,m,4,1644,578,hit,6,female,19,q,older,1
EA_exp_2,5,1,110,146,2,m,2,1309,609,fa,4,female,19,NA,NA,NA
EA_exp_2,5,1,111,58,1,m,4,1133,438,hit,6,female,19,p,younger,1
EA_exp_2,5,1,112,161,2,z,3,1395,1065,cr,2,female,19,NA,NA,NA
EA_exp_2,5,1,113,168,2,z,4,2927,404,cr,1,female,19,NA,NA,NA
EA_exp_2,5,1,114,192,2,m,2,2421,477,fa,4,female,19,NA,NA,NA
EA_exp_2,5,1,115,48,1,z,1,1709,865,miss,3,female,19,q,older,1
EA_exp_2,5,1,116,80,1,m,4,2080,406,hit,6,female,19,p,younger,1
EA_exp_2,5,1,117,179,2,z,4,1558,435,cr,1,female,19,NA,NA,NA
EA_exp_2,5,1,118,95,1,m,4,3187,460,hit,6,female,19,p,younger,1
EA_exp_2,5,1,119,46,1,z,4,1356,606,miss,1,female,19,q,older,1
EA_exp_2,5,1,120,4,1,z,2,1499,534,miss,3,female,19,q,older,1
EA_exp_2,5,1,121,99,1,m,4,1315,567,hit,6,female,19,p,younger,1
EA_exp_2,5,1,122,113,2,z,4,1294,534,cr,1,female,19,NA,NA,NA
EA_exp_2,5,1,123,52,1,z,2,5426,402,miss,3,female,19,p,younger,1
EA_exp_2,5,1,124,165,2,z,2,1347,1591,cr,3,female,19,NA,NA,NA
EA_exp_2,5,1,125,47,1,z,1,1289,495,miss,3,female,19,q,older,1
EA_exp_2,5,1,126,100,1,m,4,1373,414,hit,6,female,19,q,older,1
EA_exp_2,5,1,127,53,1,m,4,1347,659,hit,6,female,19,p,younger,1
EA_exp_2,5,1,128,144,2,z,4,1309,527,cr,1,female,19,NA,NA,NA
EA_exp_2,5,1,129,170,2,z,4,1166,455,cr,1,female,19,NA,NA,NA
EA_exp_2,5,1,130,85,1,m,2,1748,441,hit,4,female,19,q,older,1
EA_exp_2,5,1,131,92,1,z,4,1322,846,miss,1,female,19,q,older,1
EA_exp_2,5,1,132,114,2,z,3,1212,486,cr,2,female,19,NA,NA,NA
EA_exp_2,5,1,133,61,1,z,3,1525,512,miss,2,female,19,p,younger,1
EA_exp_2,5,1,134,199,2,z,3,1754,369,cr,2,female,19,NA,NA,NA
EA_exp_2,5,1,135,8,1,m,2,1360,1062,hit,4,female,19,p,younger,1
EA_exp_2,5,1,136,37,1,m,4,1423,767,hit,6,female,19,p,younger,1
EA_exp_2,5,1,137,160,2,z,4,1212,553,cr,1,female,19,NA,NA,NA
EA_exp_2,5,1,138,19,1,m,4,1445,340,hit,6,female,19,q,older,1
EA_exp_2,5,1,139,32,1,m,3,1675,639,hit,5,female,19,q,older,1
EA_exp_2,5,1,140,101,2,z,2,1271,734,cr,3,female,19,NA,NA,NA
EA_exp_2,5,1,141,55,1,z,3,1041,418,miss,2,female,19,p,younger,1
EA_exp_2,5,1,142,183,2,z,1,1491,607,cr,3,female,19,NA,NA,NA
EA_exp_2,5,1,143,72,1,z,2,1289,479,miss,3,female,19,q,older,1
EA_exp_2,5,1,144,23,1,z,2,1664,356,miss,3,female,19,q,older,1
EA_exp_2,5,1,145,130,2,z,2,887,797,cr,3,female,19,NA,NA,NA
EA_exp_2,5,1,146,3,1,m,2,1311,404,hit,4,female,19,p,younger,1
EA_exp_2,5,1,147,171,2,z,4,1270,428,cr,1,female,19,NA,NA,NA
EA_exp_2,5,1,148,110,2,z,4,1164,392,cr,1,female,19,NA,NA,NA
EA_exp_2,5,1,149,30,1,m,4,2172,508,hit,6,female,19,q,older,1
EA_exp_2,5,1,150,64,1,m,4,1275,401,hit,6,female,19,q,older,1
EA_exp_2,5,1,151,111,2,m,2,2223,353,fa,4,female,19,NA,NA,NA
EA_exp_2,5,1,152,76,1,z,3,2118,537,miss,2,female,19,q,older,1
EA_exp_2,5,1,153,198,2,z,4,1206,398,cr,1,female,19,NA,NA,NA
EA_exp_2,5,1,154,189,2,z,4,847,631,cr,1,female,19,NA,NA,NA
EA_exp_2,5,1,155,82,1,m,2,2628,401,hit,4,female,19,q,older,1
EA_exp_2,5,1,156,24,1,z,4,1204,427,miss,1,female,19,q,older,1
EA_exp_2,5,1,157,185,2,z,4,986,621,cr,1,female,19,NA,NA,NA
EA_exp_2,5,1,158,62,1,m,4,1508,484,hit,6,female,19,p,younger,1
EA_exp_2,5,1,159,77,1,m,4,1089,479,hit,6,female,19,p,younger,1
EA_exp_2,5,1,160,43,1,z,4,1183,471,miss,1,female,19,q,older,1
EA_exp_2,5,1,161,136,2,z,4,966,344,cr,1,female,19,NA,NA,NA
EA_exp_2,5,1,162,126,2,z,4,1948,328,cr,1,female,19,NA,NA,NA
EA_exp_2,5,1,163,175,2,z,4,1452,572,cr,1,female,19,NA,NA,NA
EA_exp_2,5,1,164,128,2,z,3,1178,449,cr,2,female,19,NA,NA,NA
EA_exp_2,5,1,165,117,2,m,4,1649,440,fa,6,female,19,NA,NA,NA
EA_exp_2,5,1,166,159,2,z,4,1947,596,cr,1,female,19,NA,NA,NA
EA_exp_2,5,1,167,197,2,z,4,1422,478,cr,1,female,19,NA,NA,NA
EA_exp_2,5,1,168,139,2,z,4,1084,411,cr,1,female,19,NA,NA,NA
EA_exp_2,5,1,169,135,2,z,4,1742,848,cr,1,female,19,NA,NA,NA
EA_exp_2,5,1,170,105,2,z,4,782,746,cr,1,female,19,NA,NA,NA
EA_exp_2,5,1,171,104,2,z,4,783,775,cr,1,female,19,NA,NA,NA
EA_exp_2,5,1,172,50,1,z,4,761,549,miss,1,female,19,q,older,1
EA_exp_2,5,1,173,60,1,z,4,1712,597,miss,1,female,19,p,younger,1
EA_exp_2,5,1,174,45,1,m,4,1647,455,hit,6,female,19,q,older,1
EA_exp_2,5,1,175,169,2,z,3,1493,691,cr,2,female,19,NA,NA,NA
EA_exp_2,5,1,176,83,1,z,4,681,1001,miss,1,female,19,q,older,1
EA_exp_2,5,1,177,22,1,z,4,2895,374,miss,1,female,19,q,older,1
EA_exp_2,5,1,178,13,1,m,4,1525,405,hit,6,female,19,p,younger,1
EA_exp_2,5,1,179,131,2,z,4,1538,369,cr,1,female,19,NA,NA,NA
EA_exp_2,5,1,180,121,2,z,4,1044,499,cr,1,female,19,NA,NA,NA
EA_exp_2,5,1,181,6,1,z,4,2036,762,miss,1,female,19,q,older,1
EA_exp_2,5,1,182,12,1,m,4,2077,387,hit,6,female,19,q,older,1
EA_exp_2,5,1,183,74,1,z,4,1014,373,miss,1,female,19,q,older,1
EA_exp_2,5,1,184,188,2,z,3,2422,368,cr,2,female,19,NA,NA,NA
EA_exp_2,5,1,185,87,1,m,4,1492,528,hit,6,female,19,q,older,1
EA_exp_2,5,1,186,109,2,z,4,828,677,cr,1,female,19,NA,NA,NA
EA_exp_2,5,1,187,133,2,z,3,1019,1004,cr,2,female,19,NA,NA,NA
EA_exp_2,5,1,188,115,2,z,4,2999,279,cr,1,female,19,NA,NA,NA
EA_exp_2,5,1,189,17,1,m,2,1566,456,hit,4,female,19,p,younger,1
EA_exp_2,5,1,190,73,1,z,4,1368,652,miss,1,female,19,q,older,1
EA_exp_2,5,1,191,84,1,m,3,1572,524,hit,5,female,19,p,younger,1
EA_exp_2,5,1,192,69,1,z,2,1322,2029,miss,3,female,19,q,older,1
EA_exp_2,5,1,193,26,1,z,4,1194,248,miss,1,female,19,q,older,1
EA_exp_2,5,1,194,27,1,z,3,943,1091,miss,2,female,19,q,older,1
EA_exp_2,5,1,195,184,2,z,3,1017,1450,cr,2,female,19,NA,NA,NA
EA_exp_2,5,1,196,107,2,z,3,739,670,cr,2,female,19,NA,NA,NA
EA_exp_2,5,1,197,123,2,z,4,1286,331,cr,1,female,19,NA,NA,NA
EA_exp_2,5,1,198,125,2,z,4,1266,501,cr,1,female,19,NA,NA,NA
EA_exp_2,5,1,199,193,2,z,4,1060,320,cr,1,female,19,NA,NA,NA
EA_exp_2,5,1,200,140,2,z,4,741,689,cr,1,female,19,NA,NA,NA
EA_exp_2,6,2,1,9,2,m,2,5283,2932,fa,4,female,19,NA,NA,NA
EA_exp_2,6,2,2,177,1,m,4,3249,1832,hit,6,female,19,q,older,1
EA_exp_2,6,2,3,106,1,m,4,2689,1934,hit,6,female,19,q,older,1
EA_exp_2,6,2,4,134,1,m,4,2449,1498,hit,6,female,19,p,younger,1
EA_exp_2,6,2,5,47,2,z,2,4335,1612,cr,3,female,19,NA,NA,NA
EA_exp_2,6,2,6,197,1,m,2,3354,1758,hit,4,female,19,q,older,1
EA_exp_2,6,2,7,65,2,z,3,3800,1563,cr,2,female,19,NA,NA,NA
EA_exp_2,6,2,8,93,2,z,1,4830,1095,cr,3,female,19,NA,NA,NA
EA_exp_2,6,2,9,28,2,z,3,1980,998,cr,2,female,19,NA,NA,NA
EA_exp_2,6,2,10,108,1,m,2,2425,872,hit,4,female,19,q,older,1
EA_exp_2,6,2,11,21,2,z,1,4259,789,cr,3,female,19,NA,NA,NA
EA_exp_2,6,2,12,82,2,z,2,1609,720,cr,3,female,19,NA,NA,NA
EA_exp_2,6,2,13,191,1,m,3,1671,1244,hit,5,female,19,q,older,1
EA_exp_2,6,2,14,61,2,z,3,2525,1552,cr,2,female,19,NA,NA,NA
EA_exp_2,6,2,15,34,2,z,3,2179,2917,cr,2,female,19,NA,NA,NA
EA_exp_2,6,2,16,182,1,m,1,4946,709,hit,4,female,19,q,older,1
EA_exp_2,6,2,17,7,2,z,3,1385,2220,cr,2,female,19,NA,NA,NA
EA_exp_2,6,2,18,60,2,z,2,3653,1406,cr,3,female,19,NA,NA,NA
EA_exp_2,6,2,19,33,2,z,3,1573,2496,cr,2,female,19,NA,NA,NA
EA_exp_2,6,2,20,74,2,z,2,2940,1121,cr,3,female,19,NA,NA,NA
EA_exp_2,6,2,21,155,1,z,1,2230,934,miss,3,female,19,q,older,1
EA_exp_2,6,2,22,199,1,m,2,1552,1005,hit,4,female,19,q,older,1
EA_exp_2,6,2,23,15,2,z,4,1334,1274,cr,1,female,19,NA,NA,NA
EA_exp_2,6,2,24,139,1,m,4,1928,1205,hit,6,female,19,p,younger,1
EA_exp_2,6,2,25,64,2,z,1,4599,1096,cr,3,female,19,NA,NA,NA
EA_exp_2,6,2,26,121,1,m,1,3934,1034,hit,4,female,19,q,older,1
EA_exp_2,6,2,27,84,2,z,2,2673,928,cr,3,female,19,NA,NA,NA
EA_exp_2,6,2,28,52,2,z,3,2186,1279,cr,2,female,19,NA,NA,NA
EA_exp_2,6,2,29,176,1,z,3,1997,695,miss,2,female,19,q,older,1
EA_exp_2,6,2,30,129,1,z,1,3052,540,miss,3,female,19,q,older,1
EA_exp_2,6,2,31,4,2,z,1,3925,1060,cr,3,female,19,NA,NA,NA
EA_exp_2,6,2,32,148,1,m,3,1160,1238,hit,5,female,19,q,older,1
EA_exp_2,6,2,33,164,1,m,4,1333,1002,hit,6,female,19,q,older,1
EA_exp_2,6,2,34,186,1,m,2,2371,767,hit,4,female,19,p,younger,1
EA_exp_2,6,2,35,110,1,m,4,1488,703,hit,6,female,19,q,older,1
EA_exp_2,6,2,36,48,2,z,2,2326,672,cr,3,female,19,NA,NA,NA
EA_exp_2,6,2,37,168,1,m,4,1031,855,hit,6,female,19,p,younger,1
EA_exp_2,6,2,38,88,2,z,4,1605,768,cr,1,female,19,NA,NA,NA
EA_exp_2,6,2,39,120,1,m,2,1537,782,hit,4,female,19,q,older,1
EA_exp_2,6,2,40,144,1,z,2,2816,873,miss,3,female,19,p,younger,1
EA_exp_2,6,2,41,173,1,m,4,1190,737,hit,6,female,19,q,older,1
EA_exp_2,6,2,42,81,2,z,4,1891,1074,cr,1,female,19,NA,NA,NA
EA_exp_2,6,2,43,137,1,m,2,2473,751,hit,4,female,19,p,younger,1
EA_exp_2,6,2,44,149,1,z,2,2226,674,miss,3,female,19,q,older,1
EA_exp_2,6,2,45,36,2,z,4,1719,1069,cr,1,female,19,NA,NA,NA
EA_exp_2,6,2,46,162,1,m,4,1700,697,hit,6,female,19,p,younger,1
EA_exp_2,6,2,47,175,1,m,4,1018,784,hit,6,female,19,q,older,1
EA_exp_2,6,2,48,57,2,z,2,1873,545,cr,3,female,19,NA,NA,NA
EA_exp_2,6,2,49,195,1,m,4,1260,483,hit,6,female,19,p,younger,1
EA_exp_2,6,2,50,112,1,m,3,2081,775,hit,5,female,19,q,older,1
EA_exp_2,6,2,51,185,1,z,3,1287,1070,miss,2,female,19,q,older,1
EA_exp_2,6,2,52,127,1,m,3,1577,687,hit,5,female,19,q,older,1
EA_exp_2,6,2,53,126,1,m,4,1048,613,hit,6,female,19,q,older,1
EA_exp_2,6,2,54,171,1,m,4,1245,613,hit,6,female,19,q,older,1
EA_exp_2,6,2,55,51,2,m,1,3567,809,fa,4,female,19,NA,NA,NA
EA_exp_2,6,2,56,16,2,z,2,2892,768,cr,3,female,19,NA,NA,NA
EA_exp_2,6,2,57,30,2,z,3,1460,497,cr,2,female,19,NA,NA,NA
EA_exp_2,6,2,58,117,1,m,2,2224,431,hit,4,female,19,q,older,1
EA_exp_2,6,2,59,45,2,z,3,1537,828,cr,2,female,19,NA,NA,NA
EA_exp_2,6,2,60,83,2,z,4,1116,682,cr,1,female,19,NA,NA,NA
EA_exp_2,6,2,61,119,1,m,3,1777,546,hit,5,female,19,p,younger,1
EA_exp_2,6,2,62,178,1,z,2,2061,597,miss,3,female,19,q,older,1
EA_exp_2,6,2,63,77,2,m,2,3118,652,fa,4,female,19,NA,NA,NA
EA_exp_2,6,2,64,53,2,z,4,1347,662,cr,1,female,19,NA,NA,NA
EA_exp_2,6,2,65,66,2,z,4,1210,551,cr,1,female,19,NA,NA,NA
EA_exp_2,6,2,66,98,2,z,4,1393,515,cr,1,female,19,NA,NA,NA
EA_exp_2,6,2,67,138,1,m,4,1729,372,hit,6,female,19,q,older,1
EA_exp_2,6,2,68,67,2,z,3,1239,1326,cr,2,female,19,NA,NA,NA
EA_exp_2,6,2,69,181,1,m,1,3208,548,hit,4,female,19,q,older,1
EA_exp_2,6,2,70,63,2,z,3,1630,1320,cr,2,female,19,NA,NA,NA
EA_exp_2,6,2,71,73,2,z,3,1717,697,cr,2,female,19,NA,NA,NA
EA_exp_2,6,2,72,39,2,z,2,2236,415,cr,3,female,19,NA,NA,NA
EA_exp_2,6,2,73,192,1,m,3,1971,523,hit,5,female,19,q,older,1
EA_exp_2,6,2,74,147,1,m,2,3866,565,hit,4,female,19,q,older,1
EA_exp_2,6,2,75,116,1,z,2,1699,455,miss,3,female,19,q,older,1
EA_exp_2,6,2,76,91,2,z,4,1127,611,cr,1,female,19,NA,NA,NA
EA_exp_2,6,2,77,167,1,m,4,1437,428,hit,6,female,19,p,younger,1
EA_exp_2,6,2,78,37,2,z,2,1611,821,cr,3,female,19,NA,NA,NA
EA_exp_2,6,2,79,41,2,z,3,1474,531,cr,2,female,19,NA,NA,NA
EA_exp_2,6,2,80,70,2,m,1,3154,492,fa,4,female,19,NA,NA,NA
EA_exp_2,6,2,81,200,1,m,4,1290,511,hit,6,female,19,p,younger,1
EA_exp_2,6,2,82,141,1,m,4,1501,424,hit,6,female,19,q,older,1
EA_exp_2,6,2,83,95,2,z,3,1463,569,cr,2,female,19,NA,NA,NA
EA_exp_2,6,2,84,31,2,z,2,1715,504,cr,3,female,19,NA,NA,NA
EA_exp_2,6,2,85,101,1,m,1,3063,581,hit,4,female,19,p,younger,1
EA_exp_2,6,2,86,125,1,m,4,1919,523,hit,6,female,19,q,older,1
EA_exp_2,6,2,87,90,2,z,3,1415,505,cr,2,female,19,NA,NA,NA
EA_exp_2,6,2,88,62,2,z,2,3256,461,cr,3,female,19,NA,NA,NA
EA_exp_2,6,2,89,190,1,z,3,1756,1328,miss,2,female,19,q,older,1
EA_exp_2,6,2,90,19,2,z,4,1290,609,cr,1,female,19,NA,NA,NA
EA_exp_2,6,2,91,96,2,z,4,1305,624,cr,1,female,19,NA,NA,NA
EA_exp_2,6,2,92,40,2,z,4,1398,601,cr,1,female,19,NA,NA,NA
EA_exp_2,6,2,93,161,1,m,4,1281,457,hit,6,female,19,q,older,1
EA_exp_2,6,2,94,6,2,z,4,1250,558,cr,1,female,19,NA,NA,NA
EA_exp_2,6,2,95,132,1,m,3,2332,694,hit,5,female,19,p,younger,1
EA_exp_2,6,2,96,159,1,z,2,1453,876,miss,3,female,19,p,younger,1
EA_exp_2,6,2,97,79,2,z,4,1419,538,cr,1,female,19,NA,NA,NA
EA_exp_2,6,2,98,154,1,m,2,2516,460,hit,4,female,19,p,younger,1
EA_exp_2,6,2,99,17,2,z,3,2251,1034,cr,2,female,19,NA,NA,NA
EA_exp_2,6,2,100,3,2,z,3,1715,1063,cr,2,female,19,NA,NA,NA
EA_exp_2,6,2,101,107,1,z,2,1422,639,miss,3,female,19,q,older,1
EA_exp_2,6,2,102,187,1,z,3,2469,494,miss,2,female,19,q,older,1
EA_exp_2,6,2,103,183,1,m,2,1755,638,hit,4,female,19,q,older,1
EA_exp_2,6,2,104,111,1,m,2,2119,444,hit,4,female,19,q,older,1
EA_exp_2,6,2,105,143,1,m,4,1631,467,hit,6,female,19,q,older,1
EA_exp_2,6,2,106,5,2,z,2,1666,504,cr,3,female,19,NA,NA,NA
EA_exp_2,6,2,107,109,1,m,4,1639,526,hit,6,female,19,q,older,1
EA_exp_2,6,2,108,102,1,z,3,2026,483,miss,2,female,19,q,older,1
EA_exp_2,6,2,109,193,1,z,2,1393,659,miss,3,female,19,q,older,1
EA_exp_2,6,2,110,54,2,z,2,1916,519,cr,3,female,19,NA,NA,NA
EA_exp_2,6,2,111,12,2,m,2,1989,573,fa,4,female,19,NA,NA,NA
EA_exp_2,6,2,112,29,2,m,3,1315,492,fa,5,female,19,NA,NA,NA
EA_exp_2,6,2,113,133,1,m,2,1833,540,hit,4,female,19,q,older,1
EA_exp_2,6,2,114,179,1,m,3,2614,568,hit,5,female,19,q,older,1
EA_exp_2,6,2,115,27,2,z,1,2180,532,cr,3,female,19,NA,NA,NA
EA_exp_2,6,2,116,75,2,z,1,1203,427,cr,3,female,19,NA,NA,NA
EA_exp_2,6,2,117,25,2,m,2,4793,388,fa,4,female,19,NA,NA,NA
EA_exp_2,6,2,118,165,1,z,2,2200,487,miss,3,female,19,q,older,1
EA_exp_2,6,2,119,76,2,z,2,2423,383,cr,3,female,19,NA,NA,NA
EA_exp_2,6,2,120,97,2,z,3,1683,486,cr,2,female,19,NA,NA,NA
EA_exp_2,6,2,121,103,1,m,3,1271,508,hit,5,female,19,q,older,1
EA_exp_2,6,2,122,68,2,z,3,2122,445,cr,2,female,19,NA,NA,NA
EA_exp_2,6,2,123,170,1,m,4,1470,412,hit,6,female,19,p,younger,1
EA_exp_2,6,2,124,169,1,z,2,1565,440,miss,3,female,19,q,older,1
EA_exp_2,6,2,125,50,2,z,3,3268,911,cr,2,female,19,NA,NA,NA
EA_exp_2,6,2,126,56,2,z,3,1660,1474,cr,2,female,19,NA,NA,NA
EA_exp_2,6,2,127,160,1,m,4,1369,412,hit,6,female,19,p,younger,1
EA_exp_2,6,2,128,166,1,m,3,1278,371,hit,5,female,19,q,older,1
EA_exp_2,6,2,129,156,1,m,4,1032,470,hit,6,female,19,q,older,1
EA_exp_2,6,2,130,22,2,z,3,1235,573,cr,2,female,19,NA,NA,NA
EA_exp_2,6,2,131,105,1,m,4,1384,377,hit,6,female,19,q,older,1
EA_exp_2,6,2,132,113,1,z,2,1179,406,miss,3,female,19,p,younger,1
EA_exp_2,6,2,133,80,2,z,2,2824,463,cr,3,female,19,NA,NA,NA
EA_exp_2,6,2,134,14,2,z,2,2414,439,cr,3,female,19,NA,NA,NA
EA_exp_2,6,2,135,153,1,m,3,1705,428,hit,5,female,19,q,older,1
EA_exp_2,6,2,136,49,2,z,4,1195,854,cr,1,female,19,NA,NA,NA
EA_exp_2,6,2,137,69,2,z,3,1625,463,cr,2,female,19,NA,NA,NA
EA_exp_2,6,2,138,135,1,m,3,1471,589,hit,5,female,19,q,older,1
EA_exp_2,6,2,139,59,2,z,3,1540,562,cr,2,female,19,NA,NA,NA
EA_exp_2,6,2,140,152,1,m,4,3357,672,hit,6,female,19,p,younger,1
EA_exp_2,6,2,141,136,1,m,4,1462,997,hit,6,female,19,q,older,1
EA_exp_2,6,2,142,23,2,z,3,1304,468,cr,2,female,19,NA,NA,NA
EA_exp_2,6,2,143,35,2,z,3,1697,1192,cr,2,female,19,NA,NA,NA
EA_exp_2,6,2,144,87,2,z,4,1385,572,cr,1,female,19,NA,NA,NA
EA_exp_2,6,2,145,42,2,z,2,2309,435,cr,3,female,19,NA,NA,NA
EA_exp_2,6,2,146,124,1,m,4,1558,415,hit,6,female,19,p,younger,1
EA_exp_2,6,2,147,94,2,z,3,1327,452,cr,2,female,19,NA,NA,NA
EA_exp_2,6,2,148,172,1,m,3,2129,439,hit,5,female,19,q,older,1
EA_exp_2,6,2,149,20,2,z,2,1752,795,cr,3,female,19,NA,NA,NA
EA_exp_2,6,2,150,86,2,m,3,1310,257,fa,5,female,19,NA,NA,NA
EA_exp_2,6,2,151,174,1,m,3,1675,384,hit,5,female,19,q,older,1
EA_exp_2,6,2,152,58,2,z,3,1138,1357,cr,2,female,19,NA,NA,NA
EA_exp_2,6,2,153,26,2,z,3,1813,585,cr,2,female,19,NA,NA,NA
EA_exp_2,6,2,154,11,2,z,3,2530,471,cr,2,female,19,NA,NA,NA
EA_exp_2,6,2,155,151,1,z,3,2629,535,miss,2,female,19,q,older,1
EA_exp_2,6,2,156,142,1,m,4,1441,321,hit,6,female,19,q,older,1
EA_exp_2,6,2,157,180,1,m,4,1108,370,hit,6,female,19,q,older,1
EA_exp_2,6,2,158,18,2,z,3,1447,436,cr,2,female,19,NA,NA,NA
EA_exp_2,6,2,159,194,1,m,4,1059,419,hit,6,female,19,p,younger,1
EA_exp_2,6,2,160,122,1,m,4,995,405,hit,6,female,19,p,younger,1
EA_exp_2,6,2,161,8,2,z,3,1208,385,cr,2,female,19,NA,NA,NA
EA_exp_2,6,2,162,72,2,z,2,3167,588,cr,3,female,19,NA,NA,NA
EA_exp_2,6,2,163,24,2,z,1,2072,749,cr,3,female,19,NA,NA,NA
EA_exp_2,6,2,164,92,2,m,4,1203,362,fa,6,female,19,NA,NA,NA
EA_exp_2,6,2,165,163,1,m,3,1117,1098,hit,5,female,19,q,older,1
EA_exp_2,6,2,166,158,1,z,1,2096,517,miss,3,female,19,q,older,1
EA_exp_2,6,2,167,1,2,z,2,1940,670,cr,3,female,19,NA,NA,NA
EA_exp_2,6,2,168,150,1,m,4,1173,591,hit,6,female,19,q,older,1
EA_exp_2,6,2,169,115,1,z,2,1147,580,miss,3,female,19,q,older,1
EA_exp_2,6,2,170,78,2,z,2,1423,559,cr,3,female,19,NA,NA,NA
EA_exp_2,6,2,171,140,1,m,3,1341,366,hit,5,female,19,q,older,1
EA_exp_2,6,2,172,89,2,m,3,927,790,fa,5,female,19,NA,NA,NA
EA_exp_2,6,2,173,146,1,z,1,1162,451,miss,3,female,19,q,older,1
EA_exp_2,6,2,174,43,2,z,2,2977,1140,cr,3,female,19,NA,NA,NA
EA_exp_2,6,2,175,104,1,m,3,1353,427,hit,5,female,19,p,younger,1
EA_exp_2,6,2,176,46,2,z,3,1725,1567,cr,2,female,19,NA,NA,NA
EA_exp_2,6,2,177,188,1,m,4,1429,402,hit,6,female,19,q,older,1
EA_exp_2,6,2,178,198,1,m,4,854,971,hit,6,female,19,p,younger,1
EA_exp_2,6,2,179,2,2,m,2,2870,749,fa,4,female,19,NA,NA,NA
EA_exp_2,6,2,180,128,1,z,2,1354,627,miss,3,female,19,q,older,1
EA_exp_2,6,2,181,71,2,m,2,2494,1009,fa,4,female,19,NA,NA,NA
EA_exp_2,6,2,182,99,2,m,2,1611,787,fa,4,female,19,NA,NA,NA
EA_exp_2,6,2,183,44,2,z,3,1464,1283,cr,2,female,19,NA,NA,NA
EA_exp_2,6,2,184,130,1,m,3,1793,515,hit,5,female,19,q,older,1
EA_exp_2,6,2,185,131,1,m,4,1390,482,hit,6,female,19,p,younger,1
EA_exp_2,6,2,186,189,1,z,4,1617,1209,miss,1,female,19,q,older,1
EA_exp_2,6,2,187,85,2,z,1,2155,446,cr,3,female,19,NA,NA,NA
EA_exp_2,6,2,188,55,2,z,2,1547,921,cr,3,female,19,NA,NA,NA
EA_exp_2,6,2,189,157,1,z,2,1271,460,miss,3,female,19,q,older,1
EA_exp_2,6,2,190,145,1,m,2,3180,566,hit,4,female,19,q,older,1
EA_exp_2,6,2,191,123,1,m,4,1632,697,hit,6,female,19,q,older,1
EA_exp_2,6,2,192,196,1,m,1,2431,872,hit,4,female,19,q,older,1
EA_exp_2,6,2,193,100,2,z,3,1829,934,cr,2,female,19,NA,NA,NA
EA_exp_2,6,2,194,32,2,z,3,1263,552,cr,2,female,19,NA,NA,NA
EA_exp_2,6,2,195,184,1,m,4,1780,550,hit,6,female,19,p,younger,1
EA_exp_2,6,2,196,114,1,z,3,1332,1061,miss,2,female,19,q,older,1
EA_exp_2,6,2,197,118,1,m,3,2348,392,hit,5,female,19,p,younger,1
EA_exp_2,6,2,198,38,2,z,3,1386,924,cr,2,female,19,NA,NA,NA
EA_exp_2,6,2,199,10,2,z,2,2200,1242,cr,3,female,19,NA,NA,NA
EA_exp_2,6,2,200,13,2,z,4,1670,975,cr,1,female,19,NA,NA,NA
EA_exp_2,7,2,1,101,1,m,4,2478,2277,hit,6,female,23,q,older,1
EA_exp_2,7,2,2,64,2,m,2,3417,1517,fa,4,female,23,NA,NA,NA
EA_exp_2,7,2,3,7,2,m,1,2336,1389,fa,4,female,23,NA,NA,NA
EA_exp_2,7,2,4,54,2,z,2,3079,1589,cr,3,female,23,NA,NA,NA
EA_exp_2,7,2,5,136,1,m,4,1672,1423,hit,6,female,23,p,younger,1
EA_exp_2,7,2,6,18,2,m,1,2421,4688,fa,4,female,23,NA,NA,NA
EA_exp_2,7,2,7,43,2,m,2,1429,2244,fa,4,female,23,NA,NA,NA
EA_exp_2,7,2,8,143,1,m,4,1277,947,hit,6,female,23,q,older,1
EA_exp_2,7,2,9,16,2,m,1,3007,1135,fa,4,female,23,NA,NA,NA
EA_exp_2,7,2,10,190,1,m,3,1315,1208,hit,5,female,23,q,older,1
EA_exp_2,7,2,11,162,1,m,4,2568,685,hit,6,female,23,p,younger,1
EA_exp_2,7,2,12,111,1,m,4,962,1108,hit,6,female,23,q,older,1
EA_exp_2,7,2,13,125,1,m,4,827,1187,hit,6,female,23,p,younger,1
EA_exp_2,7,2,14,199,1,m,2,2433,2428,hit,4,female,23,q,older,1
EA_exp_2,7,2,15,79,2,z,3,2030,2405,cr,2,female,23,NA,NA,NA
EA_exp_2,7,2,16,198,1,m,4,1351,618,hit,6,female,23,p,younger,1
EA_exp_2,7,2,17,97,2,z,2,2320,1263,cr,3,female,23,NA,NA,NA
EA_exp_2,7,2,18,114,1,z,1,2351,1321,miss,3,female,23,q,older,1
EA_exp_2,7,2,19,26,2,z,3,2646,1397,cr,2,female,23,NA,NA,NA
EA_exp_2,7,2,20,5,2,z,4,2104,2148,cr,1,female,23,NA,NA,NA
EA_exp_2,7,2,21,132,1,m,2,3869,1247,hit,4,female,23,p,younger,1
EA_exp_2,7,2,22,152,1,m,4,1215,807,hit,6,female,23,q,older,1
EA_exp_2,7,2,23,31,2,z,2,1737,2077,cr,3,female,23,NA,NA,NA
EA_exp_2,7,2,24,130,1,m,4,2028,579,hit,6,female,23,q,older,1
EA_exp_2,7,2,25,11,2,z,1,2107,1378,cr,3,female,23,NA,NA,NA
EA_exp_2,7,2,26,38,2,z,3,3882,3707,cr,2,female,23,NA,NA,NA
EA_exp_2,7,2,27,95,2,z,3,1864,1752,cr,2,female,23,NA,NA,NA
EA_exp_2,7,2,28,81,2,z,2,1969,1165,cr,3,female,23,NA,NA,NA
EA_exp_2,7,2,29,134,1,m,1,2642,3408,hit,4,female,23,p,younger,1
EA_exp_2,7,2,30,84,2,m,1,1255,1056,fa,4,female,23,NA,NA,NA
EA_exp_2,7,2,31,83,2,z,3,2106,1357,cr,2,female,23,NA,NA,NA
EA_exp_2,7,2,32,19,2,z,2,1621,1648,cr,3,female,23,NA,NA,NA
EA_exp_2,7,2,33,123,1,m,4,1440,463,hit,6,female,23,q,older,1
EA_exp_2,7,2,34,12,2,z,3,3262,2262,cr,2,female,23,NA,NA,NA
EA_exp_2,7,2,35,67,2,z,3,1596,1254,cr,2,female,23,NA,NA,NA
EA_exp_2,7,2,36,144,1,m,2,1828,869,hit,4,female,23,p,younger,1
EA_exp_2,7,2,37,33,2,z,3,1746,1303,cr,2,female,23,NA,NA,NA
EA_exp_2,7,2,38,142,1,m,2,2179,999,hit,4,female,23,p,younger,1
EA_exp_2,7,2,39,166,1,m,4,1503,990,hit,6,female,23,q,older,1
EA_exp_2,7,2,40,1,2,z,1,2358,1779,cr,3,female,23,NA,NA,NA
EA_exp_2,7,2,41,61,2,m,1,2876,868,fa,4,female,23,NA,NA,NA
EA_exp_2,7,2,42,24,2,z,1,1971,2045,cr,3,female,23,NA,NA,NA
EA_exp_2,7,2,43,55,2,z,1,3437,1005,cr,3,female,23,NA,NA,NA
EA_exp_2,7,2,44,108,1,m,2,2392,511,hit,4,female,23,q,older,1
EA_exp_2,7,2,45,20,2,z,3,1613,886,cr,2,female,23,NA,NA,NA
EA_exp_2,7,2,46,73,2,z,3,1860,1346,cr,2,female,23,NA,NA,NA
EA_exp_2,7,2,47,154,1,z,1,2079,2036,miss,3,female,23,p,younger,1
EA_exp_2,7,2,48,72,2,m,2,1571,1168,fa,4,female,23,NA,NA,NA
EA_exp_2,7,2,49,62,2,z,1,1551,1837,cr,3,female,23,NA,NA,NA
EA_exp_2,7,2,50,105,1,m,4,1766,1080,hit,6,female,23,q,older,1
EA_exp_2,7,2,51,195,1,m,3,1614,1143,hit,5,female,23,p,younger,1
EA_exp_2,7,2,52,171,1,m,2,1290,801,hit,4,female,23,q,older,1
EA_exp_2,7,2,53,96,2,z,3,1986,1404,cr,2,female,23,NA,NA,NA
EA_exp_2,7,2,54,187,1,m,2,1540,1472,hit,4,female,23,q,older,1
EA_exp_2,7,2,55,23,2,z,3,1527,1443,cr,2,female,23,NA,NA,NA
EA_exp_2,7,2,56,10,2,z,2,1865,714,cr,3,female,23,NA,NA,NA
EA_exp_2,7,2,57,150,1,z,1,2302,1036,miss,3,female,23,q,older,1
EA_exp_2,7,2,58,45,2,z,2,1650,2140,cr,3,female,23,NA,NA,NA
EA_exp_2,7,2,59,137,1,m,2,3481,725,hit,4,female,23,p,younger,1
EA_exp_2,7,2,60,34,2,z,2,2251,1402,cr,3,female,23,NA,NA,NA
EA_exp_2,7,2,61,155,1,z,2,2609,3732,miss,3,female,23,q,older,1
EA_exp_2,7,2,62,100,2,z,1,3744,964,cr,3,female,23,NA,NA,NA
EA_exp_2,7,2,63,121,1,m,4,1934,1227,hit,6,female,23,p,younger,1
EA_exp_2,7,2,64,3,2,z,1,1883,1098,cr,3,female,23,NA,NA,NA
EA_exp_2,7,2,65,44,2,z,1,2289,2462,cr,3,female,23,NA,NA,NA
EA_exp_2,7,2,66,174,1,m,3,1584,1111,hit,5,female,23,q,older,1
EA_exp_2,7,2,67,28,2,m,1,2043,643,fa,4,female,23,NA,NA,NA
EA_exp_2,7,2,68,75,2,z,1,2860,499,cr,3,female,23,NA,NA,NA
EA_exp_2,7,2,69,118,1,m,2,2896,1110,hit,4,female,23,p,younger,1
EA_exp_2,7,2,70,116,1,m,3,2137,1039,hit,5,female,23,q,older,1
EA_exp_2,7,2,71,57,2,z,1,1782,3992,cr,3,female,23,NA,NA,NA
EA_exp_2,7,2,72,181,1,z,1,2889,1168,miss,3,female,23,p,younger,1
EA_exp_2,7,2,73,159,1,m,2,1971,750,hit,4,female,23,p,younger,1
EA_exp_2,7,2,74,147,1,z,1,1553,2093,miss,3,female,23,q,older,1
EA_exp_2,7,2,75,99,2,m,2,1434,1130,fa,4,female,23,NA,NA,NA
EA_exp_2,7,2,76,4,2,z,1,2299,1005,cr,3,female,23,NA,NA,NA
EA_exp_2,7,2,77,98,2,z,4,1812,886,cr,1,female,23,NA,NA,NA
EA_exp_2,7,2,78,112,1,z,1,3408,740,miss,3,female,23,q,older,1
EA_exp_2,7,2,79,50,2,m,1,3320,734,fa,4,female,23,NA,NA,NA
EA_exp_2,7,2,80,131,1,m,1,2515,1702,hit,4,female,23,p,younger,1
EA_exp_2,7,2,81,146,1,m,1,3797,2869,hit,4,female,23,q,older,1
EA_exp_2,7,2,82,194,1,m,4,1941,863,hit,6,female,23,p,younger,1
EA_exp_2,7,2,83,126,1,m,3,1615,486,hit,5,female,23,p,younger,1
EA_exp_2,7,2,84,59,2,z,4,2293,2147,cr,1,female,23,NA,NA,NA
EA_exp_2,7,2,85,76,2,z,2,1615,4024,cr,3,female,23,NA,NA,NA
EA_exp_2,7,2,86,161,1,m,2,2330,1011,hit,4,female,23,q,older,1
EA_exp_2,7,2,87,185,1,z,2,1646,2485,miss,3,female,23,p,younger,1
EA_exp_2,7,2,88,189,1,m,4,1410,1044,hit,6,female,23,q,older,1
EA_exp_2,7,2,89,180,1,m,1,2907,591,hit,4,female,23,p,younger,1
EA_exp_2,7,2,90,167,1,m,4,1478,775,hit,6,female,23,p,younger,1
EA_exp_2,7,2,91,178,1,z,2,2059,1266,miss,3,female,23,q,older,1
EA_exp_2,7,2,92,165,1,m,1,3518,1325,hit,4,female,23,q,older,1
EA_exp_2,7,2,93,47,2,m,1,3061,729,fa,4,female,23,NA,NA,NA
EA_exp_2,7,2,94,197,1,m,3,1055,892,hit,5,female,23,p,younger,1
EA_exp_2,7,2,95,9,2,z,1,1677,1217,cr,3,female,23,NA,NA,NA
EA_exp_2,7,2,96,179,1,m,3,1714,773,hit,5,female,23,q,older,1
EA_exp_2,7,2,97,41,2,z,1,2679,2135,cr,3,female,23,NA,NA,NA
EA_exp_2,7,2,98,71,2,z,2,1747,1429,cr,3,female,23,NA,NA,NA
EA_exp_2,7,2,99,169,1,z,2,2032,2455,miss,3,female,23,q,older,1
EA_exp_2,7,2,100,40,2,z,2,2438,717,cr,3,female,23,NA,NA,NA
EA_exp_2,7,2,101,32,2,z,1,1985,2028,cr,3,female,23,NA,NA,NA
EA_exp_2,7,2,102,82,2,z,1,1788,559,cr,3,female,23,NA,NA,NA
EA_exp_2,7,2,103,176,1,z,1,2746,501,miss,3,female,23,q,older,1
EA_exp_2,7,2,104,122,1,m,3,3329,3063,hit,5,female,23,p,younger,1
EA_exp_2,7,2,105,87,2,z,3,1549,1178,cr,2,female,23,NA,NA,NA
EA_exp_2,7,2,106,164,1,m,4,1917,969,hit,6,female,23,p,younger,1
EA_exp_2,7,2,107,193,1,m,4,1364,390,hit,6,female,23,q,older,1
EA_exp_2,7,2,108,113,1,m,4,1496,390,hit,6,female,23,p,younger,1
EA_exp_2,7,2,109,29,2,z,3,2135,2507,cr,2,female,23,NA,NA,NA
EA_exp_2,7,2,110,127,1,z,1,1576,1443,miss,3,female,23,q,older,1
EA_exp_2,7,2,111,85,2,z,1,4312,1431,cr,3,female,23,NA,NA,NA
EA_exp_2,7,2,112,17,2,z,3,1648,791,cr,2,female,23,NA,NA,NA
EA_exp_2,7,2,113,110,1,m,4,1530,581,hit,6,female,23,q,older,1
EA_exp_2,7,2,114,186,1,m,2,3178,474,hit,4,female,23,p,younger,1
EA_exp_2,7,2,115,160,1,m,4,1338,1389,hit,6,female,23,p,younger,1
EA_exp_2,7,2,116,88,2,z,4,1714,1867,cr,1,female,23,NA,NA,NA
EA_exp_2,7,2,117,56,2,z,2,2820,1035,cr,3,female,23,NA,NA,NA
EA_exp_2,7,2,118,106,1,m,4,2432,923,hit,6,female,23,q,older,1
EA_exp_2,7,2,119,46,2,z,3,2040,687,cr,2,female,23,NA,NA,NA
EA_exp_2,7,2,120,92,2,z,4,1800,982,cr,1,female,23,NA,NA,NA
EA_exp_2,7,2,121,78,2,z,1,5551,2652,cr,3,female,23,NA,NA,NA
EA_exp_2,7,2,122,69,2,z,1,2004,909,cr,3,female,23,NA,NA,NA
EA_exp_2,7,2,123,109,1,m,2,1467,873,hit,4,female,23,q,older,1
EA_exp_2,7,2,124,21,2,z,3,1447,759,cr,2,female,23,NA,NA,NA
EA_exp_2,7,2,125,14,2,m,1,1661,1713,fa,4,female,23,NA,NA,NA
EA_exp_2,7,2,126,36,2,z,1,1535,986,cr,3,female,23,NA,NA,NA
EA_exp_2,7,2,127,104,1,m,4,1317,601,hit,6,female,23,p,younger,1
EA_exp_2,7,2,128,37,2,m,1,1588,3485,fa,4,female,23,NA,NA,NA
EA_exp_2,7,2,129,77,2,z,1,2659,1105,cr,3,female,23,NA,NA,NA
EA_exp_2,7,2,130,172,1,m,2,1512,1267,hit,4,female,23,p,younger,1
EA_exp_2,7,2,131,170,1,m,1,2385,876,hit,4,female,23,p,younger,1
EA_exp_2,7,2,132,94,2,z,1,3034,538,cr,3,female,23,NA,NA,NA
EA_exp_2,7,2,133,184,1,m,2,1576,2480,hit,4,female,23,p,younger,1
EA_exp_2,7,2,134,128,1,m,2,1456,1453,hit,4,female,23,q,older,1
EA_exp_2,7,2,135,70,2,z,1,2053,573,cr,3,female,23,NA,NA,NA
EA_exp_2,7,2,136,51,2,z,1,1881,535,cr,3,female,23,NA,NA,NA
EA_exp_2,7,2,137,145,1,z,1,1283,552,miss,3,female,23,q,older,1
EA_exp_2,7,2,138,149,1,z,1,2225,483,miss,3,female,23,q,older,1
EA_exp_2,7,2,139,177,1,z,1,1442,544,miss,3,female,23,q,older,1
EA_exp_2,7,2,140,66,2,z,4,1227,2660,cr,1,female,23,NA,NA,NA
EA_exp_2,7,2,141,138,1,m,1,1645,1731,hit,4,female,23,p,younger,1
EA_exp_2,7,2,142,158,1,m,1,2786,458,hit,4,female,23,q,older,1
EA_exp_2,7,2,143,182,1,m,2,1948,484,hit,4,female,23,p,younger,1
EA_exp_2,7,2,144,200,1,z,1,2116,1287,miss,3,female,23,p,younger,1
EA_exp_2,7,2,145,89,2,z,1,3686,907,cr,3,female,23,NA,NA,NA
EA_exp_2,7,2,146,27,2,z,1,2007,1329,cr,3,female,23,NA,NA,NA
EA_exp_2,7,2,147,80,2,z,3,2332,762,cr,2,female,23,NA,NA,NA
EA_exp_2,7,2,148,25,2,z,3,1695,610,cr,2,female,23,NA,NA,NA
EA_exp_2,7,2,149,103,1,z,1,1835,1100,miss,3,female,23,q,older,1
EA_exp_2,7,2,150,135,1,m,2,2787,1307,hit,4,female,23,p,younger,1
EA_exp_2,7,2,151,183,1,z,1,3191,514,miss,3,female,23,p,younger,1
EA_exp_2,7,2,152,188,1,z,1,2669,413,miss,3,female,23,q,older,1
EA_exp_2,7,2,153,30,2,z,1,1327,451,cr,3,female,23,NA,NA,NA
EA_exp_2,7,2,154,42,2,z,2,1474,1185,cr,3,female,23,NA,NA,NA
EA_exp_2,7,2,155,93,2,z,3,1411,691,cr,2,female,23,NA,NA,NA
EA_exp_2,7,2,156,192,1,z,3,1771,1612,miss,2,female,23,q,older,1
EA_exp_2,7,2,157,48,2,z,1,1773,1343,cr,3,female,23,NA,NA,NA
EA_exp_2,7,2,158,157,1,z,3,1609,692,miss,2,female,23,q,older,1
EA_exp_2,7,2,159,196,1,z,2,1801,875,miss,3,female,23,q,older,1
EA_exp_2,7,2,160,52,2,z,1,1238,560,cr,3,female,23,NA,NA,NA
EA_exp_2,7,2,161,90,2,z,1,1227,627,cr,3,female,23,NA,NA,NA
EA_exp_2,7,2,162,91,2,z,1,1328,945,cr,3,female,23,NA,NA,NA
EA_exp_2,7,2,163,120,1,m,1,1584,807,hit,4,female,23,q,older,1
EA_exp_2,7,2,164,22,2,z,2,1432,1625,cr,3,female,23,NA,NA,NA
EA_exp_2,7,2,165,53,2,z,1,2905,879,cr,3,female,23,NA,NA,NA
EA_exp_2,7,2,166,175,1,m,3,1470,603,hit,5,female,23,q,older,1
EA_exp_2,7,2,167,141,1,z,1,1303,603,miss,3,female,23,p,younger,1
EA_exp_2,7,2,168,119,1,z,2,4309,1633,miss,3,female,23,p,younger,1
EA_exp_2,7,2,169,49,2,z,3,1378,771,cr,2,female,23,NA,NA,NA
EA_exp_2,7,2,170,191,1,z,2,4565,1913,miss,3,female,23,q,older,1
EA_exp_2,7,2,171,2,2,z,3,1645,565,cr,2,female,23,NA,NA,NA
EA_exp_2,7,2,172,117,1,z,1,2193,1729,miss,3,female,23,q,older,1
EA_exp_2,7,2,173,60,2,z,1,944,498,cr,3,female,23,NA,NA,NA
EA_exp_2,7,2,174,63,2,z,3,1487,751,cr,2,female,23,NA,NA,NA
EA_exp_2,7,2,175,139,1,z,3,1283,551,miss,2,female,23,p,younger,1
EA_exp_2,7,2,176,39,2,z,3,1297,3112,cr,2,female,23,NA,NA,NA
EA_exp_2,7,2,177,6,2,z,3,1743,1201,cr,2,female,23,NA,NA,NA
EA_exp_2,7,2,178,124,1,m,1,3041,1313,hit,4,female,23,q,older,1
EA_exp_2,7,2,179,8,2,z,2,2223,2736,cr,3,female,23,NA,NA,NA
EA_exp_2,7,2,180,115,1,z,1,2451,763,miss,3,female,23,q,older,1
EA_exp_2,7,2,181,148,1,z,1,2013,1463,miss,3,female,23,q,older,1
EA_exp_2,7,2,182,151,1,m,4,2125,497,hit,6,female,23,q,older,1
EA_exp_2,7,2,183,163,1,m,3,1603,2472,hit,5,female,23,q,older,1
EA_exp_2,7,2,184,58,2,z,2,2009,1185,cr,3,female,23,NA,NA,NA
EA_exp_2,7,2,185,74,2,z,3,1571,780,cr,2,female,23,NA,NA,NA
EA_exp_2,7,2,186,65,2,z,2,1087,1230,cr,3,female,23,NA,NA,NA
EA_exp_2,7,2,187,133,1,m,1,2657,414,hit,4,female,23,p,younger,1
EA_exp_2,7,2,188,129,1,z,1,3311,1235,miss,3,female,23,q,older,1
EA_exp_2,7,2,189,173,1,m,4,1748,598,hit,6,female,23,p,younger,1
EA_exp_2,7,2,190,168,1,m,4,1139,717,hit,6,female,23,p,younger,1
EA_exp_2,7,2,191,156,1,m,4,944,453,hit,6,female,23,p,younger,1
EA_exp_2,7,2,192,13,2,m,1,3972,1022,fa,4,female,23,NA,NA,NA
EA_exp_2,7,2,193,153,1,m,2,1861,838,hit,4,female,23,p,younger,1
EA_exp_2,7,2,194,107,1,m,1,1879,772,hit,4,female,23,q,older,1
EA_exp_2,7,2,195,102,1,m,4,1766,521,hit,6,female,23,p,younger,1
EA_exp_2,7,2,196,86,2,m,3,1255,3245,fa,5,female,23,NA,NA,NA
EA_exp_2,7,2,197,140,1,m,4,974,704,hit,6,female,23,p,younger,1
EA_exp_2,7,2,198,35,2,m,3,1862,1923,fa,5,female,23,NA,NA,NA
EA_exp_2,7,2,199,15,2,z,1,2775,931,cr,3,female,23,NA,NA,NA
EA_exp_2,7,2,200,68,2,z,1,3646,918,cr,3,female,23,NA,NA,NA
EA_exp_2,8,2,1,36,2,z,2,3885,3889,cr,3,female,20,NA,NA,NA
EA_exp_2,8,2,2,190,1,m,3,2550,2026,hit,5,female,20,q,older,1
EA_exp_2,8,2,3,107,1,m,3,1866,1306,hit,5,female,20,q,older,1
EA_exp_2,8,2,4,110,1,m,3,1428,984,hit,5,female,20,q,older,1
EA_exp_2,8,2,5,73,2,m,1,4676,2303,fa,4,female,20,NA,NA,NA
EA_exp_2,8,2,6,157,1,m,4,1986,590,hit,6,female,20,q,older,1
EA_exp_2,8,2,7,39,2,z,3,1622,1376,cr,2,female,20,NA,NA,NA
EA_exp_2,8,2,8,168,1,z,3,5849,3978,miss,2,female,20,q,older,1
EA_exp_2,8,2,9,55,2,z,3,1342,528,cr,2,female,20,NA,NA,NA
EA_exp_2,8,2,10,124,1,z,2,2269,764,miss,3,female,20,q,older,1
EA_exp_2,8,2,11,200,1,m,2,2028,679,hit,4,female,20,p,younger,1
EA_exp_2,8,2,12,121,1,m,3,2060,596,hit,5,female,20,q,older,1
EA_exp_2,8,2,13,127,1,z,2,1311,563,miss,3,female,20,q,older,1
EA_exp_2,8,2,14,175,1,m,2,3872,813,hit,4,female,20,q,older,1
EA_exp_2,8,2,15,123,1,m,3,1025,992,hit,5,female,20,q,older,1
EA_exp_2,8,2,16,79,2,z,4,1096,1798,cr,1,female,20,NA,NA,NA
EA_exp_2,8,2,17,92,2,z,2,2863,1143,cr,3,female,20,NA,NA,NA
EA_exp_2,8,2,18,152,1,z,1,2267,1098,miss,3,female,20,p,younger,1
EA_exp_2,8,2,19,33,2,z,3,6479,1478,cr,2,female,20,NA,NA,NA
EA_exp_2,8,2,20,118,1,z,2,3372,495,miss,3,female,20,p,younger,1
EA_exp_2,8,2,21,42,2,z,4,1260,1396,cr,1,female,20,NA,NA,NA
EA_exp_2,8,2,22,34,2,z,3,1644,533,cr,2,female,20,NA,NA,NA
EA_exp_2,8,2,23,153,1,m,2,1571,1085,hit,4,female,20,q,older,1
EA_exp_2,8,2,24,183,1,z,2,2462,3304,miss,3,female,20,q,older,1
EA_exp_2,8,2,25,126,1,m,2,1316,827,hit,4,female,20,None,NA,1
EA_exp_2,8,2,26,5,2,z,2,3274,561,cr,3,female,20,NA,NA,NA
EA_exp_2,8,2,27,164,1,m,2,3819,1004,hit,4,female,20,q,older,1
EA_exp_2,8,2,28,71,2,m,2,1352,586,fa,4,female,20,NA,NA,NA
EA_exp_2,8,2,29,148,1,m,4,1156,495,hit,6,female,20,q,older,1
EA_exp_2,8,2,30,37,2,z,2,2557,447,cr,3,female,20,NA,NA,NA
EA_exp_2,8,2,31,154,1,z,2,2081,1382,miss,3,female,20,q,older,1
EA_exp_2,8,2,32,74,2,z,2,2638,480,cr,3,female,20,NA,NA,NA
EA_exp_2,8,2,33,21,2,z,3,1328,1362,cr,2,female,20,NA,NA,NA
EA_exp_2,8,2,34,95,2,z,3,2286,716,cr,2,female,20,NA,NA,NA
EA_exp_2,8,2,35,66,2,z,4,7490,863,cr,1,female,20,NA,NA,NA
EA_exp_2,8,2,36,143,1,m,2,1085,1436,hit,4,female,20,q,older,1
EA_exp_2,8,2,37,58,2,z,4,2321,1217,cr,1,female,20,NA,NA,NA
EA_exp_2,8,2,38,104,1,m,3,1507,895,hit,5,female,20,p,younger,1
EA_exp_2,8,2,39,101,1,z,1,2476,530,miss,3,female,20,q,older,1
EA_exp_2,8,2,40,109,1,m,3,1232,2663,hit,5,female,20,q,older,1
EA_exp_2,8,2,41,140,1,z,2,1534,1002,miss,3,female,20,q,older,1
EA_exp_2,8,2,42,106,1,m,2,1654,5979,hit,4,female,20,q,older,1
EA_exp_2,8,2,43,81,2,z,3,2348,584,cr,2,female,20,NA,NA,NA
EA_exp_2,8,2,44,86,2,z,3,1458,450,cr,2,female,20,NA,NA,NA
EA_exp_2,8,2,45,102,1,z,3,1522,494,miss,2,female,20,p,younger,1
EA_exp_2,8,2,46,113,1,z,2,2343,1369,miss,3,female,20,q,older,1
EA_exp_2,8,2,47,93,2,z,3,1584,475,cr,2,female,20,NA,NA,NA
EA_exp_2,8,2,48,194,1,m,2,1386,813,hit,4,female,20,q,older,1
EA_exp_2,8,2,49,28,2,z,3,1356,513,cr,2,female,20,NA,NA,NA
EA_exp_2,8,2,50,116,1,m,3,1846,573,hit,5,female,20,q,older,1
EA_exp_2,8,2,51,80,2,z,2,2026,1664,cr,3,female,20,NA,NA,NA
EA_exp_2,8,2,52,165,1,z,2,2078,534,miss,3,female,20,q,older,1
EA_exp_2,8,2,53,26,2,z,1,1230,1497,cr,3,female,20,NA,NA,NA
EA_exp_2,8,2,54,130,1,z,1,3855,2174,miss,3,female,20,q,older,1
EA_exp_2,8,2,55,10,2,z,2,1690,430,cr,3,female,20,NA,NA,NA
EA_exp_2,8,2,56,163,1,m,3,1442,511,hit,5,female,20,q,older,1
EA_exp_2,8,2,57,27,2,z,3,1691,930,cr,2,female,20,NA,NA,NA
EA_exp_2,8,2,58,176,1,z,3,1264,453,miss,2,female,20,q,older,1
EA_exp_2,8,2,59,132,1,m,2,5106,626,hit,4,female,20,p,younger,1
EA_exp_2,8,2,60,89,2,z,2,1496,1831,cr,3,female,20,NA,NA,NA
EA_exp_2,8,2,61,195,1,z,2,2255,2016,miss,3,female,20,p,younger,1
EA_exp_2,8,2,62,35,2,z,2,6960,3540,cr,3,female,20,NA,NA,NA
EA_exp_2,8,2,63,114,1,z,2,3428,503,miss,3,female,20,q,older,1
EA_exp_2,8,2,64,2,2,z,2,5555,351,cr,3,female,20,NA,NA,NA
EA_exp_2,8,2,65,40,2,z,3,2403,363,cr,2,female,20,NA,NA,NA
EA_exp_2,8,2,66,99,2,z,2,2701,1324,cr,3,female,20,NA,NA,NA
EA_exp_2,8,2,67,11,2,z,3,2412,577,cr,2,female,20,NA,NA,NA
EA_exp_2,8,2,68,38,2,z,4,1707,449,cr,1,female,20,NA,NA,NA
EA_exp_2,8,2,69,67,2,z,2,2786,827,cr,3,female,20,NA,NA,NA
EA_exp_2,8,2,70,41,2,z,3,2748,487,cr,2,female,20,NA,NA,NA
EA_exp_2,8,2,71,162,1,z,1,9286,459,miss,3,female,20,q,older,1
EA_exp_2,8,2,72,57,2,z,3,8427,754,cr,2,female,20,NA,NA,NA
EA_exp_2,8,2,73,117,1,z,2,1444,518,miss,3,female,20,q,older,1
EA_exp_2,8,2,74,51,2,z,2,2832,682,cr,3,female,20,NA,NA,NA
EA_exp_2,8,2,75,170,1,z,1,2031,1017,miss,3,female,20,p,younger,1
EA_exp_2,8,2,76,91,2,z,3,2850,520,cr,2,female,20,NA,NA,NA
EA_exp_2,8,2,77,7,2,z,1,2132,1145,cr,3,female,20,NA,NA,NA
EA_exp_2,8,2,78,155,1,z,3,1215,534,miss,2,female,20,q,older,1
EA_exp_2,8,2,79,97,2,z,3,2273,1024,cr,2,female,20,NA,NA,NA
EA_exp_2,8,2,80,158,1,m,2,2248,2439,hit,4,female,20,q,older,1
EA_exp_2,8,2,81,1,2,z,3,1368,442,cr,2,female,20,NA,NA,NA
EA_exp_2,8,2,82,105,1,z,3,1050,426,miss,2,female,20,q,older,1
EA_exp_2,8,2,83,189,1,z,3,1995,1044,miss,2,female,20,q,older,1
EA_exp_2,8,2,84,142,1,z,3,1229,403,miss,2,female,20,q,older,1
EA_exp_2,8,2,85,84,2,z,3,1495,402,cr,2,female,20,NA,NA,NA
EA_exp_2,8,2,86,174,1,z,3,3028,1123,miss,2,female,20,q,older,1
EA_exp_2,8,2,87,64,2,z,3,1191,386,cr,2,female,20,NA,NA,NA
EA_exp_2,8,2,88,70,2,m,1,3555,495,fa,4,female,20,NA,NA,NA
EA_exp_2,8,2,89,166,1,m,3,2458,1348,hit,5,female,20,q,older,1
EA_exp_2,8,2,90,179,1,z,3,1362,594,miss,2,female,20,q,older,1
EA_exp_2,8,2,91,199,1,m,2,1611,1525,hit,4,female,20,q,older,1
EA_exp_2,8,2,92,85,2,z,2,2009,4035,cr,3,female,20,NA,NA,NA
EA_exp_2,8,2,93,68,2,z,4,1219,1115,cr,1,female,20,NA,NA,NA
EA_exp_2,8,2,94,186,1,z,2,1985,1578,miss,3,female,20,p,younger,1
EA_exp_2,8,2,95,17,2,z,4,3167,455,cr,1,female,20,NA,NA,NA
EA_exp_2,8,2,96,144,1,z,3,1557,354,miss,2,female,20,q,older,1
EA_exp_2,8,2,97,94,2,z,4,1703,970,cr,1,female,20,NA,NA,NA
EA_exp_2,8,2,98,69,2,z,4,1208,446,cr,1,female,20,NA,NA,NA
EA_exp_2,8,2,99,177,1,m,2,1199,792,hit,4,female,20,q,older,1
EA_exp_2,8,2,100,45,2,z,3,2628,1545,cr,2,female,20,NA,NA,NA
EA_exp_2,8,2,101,19,2,z,4,1549,425,cr,1,female,20,NA,NA,NA
EA_exp_2,8,2,102,196,1,z,4,2088,384,miss,1,female,20,q,older,1
EA_exp_2,8,2,103,167,1,m,2,1956,844,hit,4,female,20,q,older,1
EA_exp_2,8,2,104,22,2,z,2,4570,991,cr,3,female,20,NA,NA,NA
EA_exp_2,8,2,105,12,2,z,4,1435,441,cr,1,female,20,NA,NA,NA
EA_exp_2,8,2,106,184,1,z,2,1930,549,miss,3,female,20,q,older,1
EA_exp_2,8,2,107,15,2,z,2,4500,663,cr,3,female,20,NA,NA,NA
EA_exp_2,8,2,108,139,1,m,4,1870,2060,hit,6,female,20,p,younger,1
EA_exp_2,8,2,109,128,1,z,1,1675,1026,miss,3,female,20,q,older,1
EA_exp_2,8,2,110,169,1,m,2,3085,249,hit,4,female,20,q,older,1
EA_exp_2,8,2,111,61,2,z,2,2859,3079,cr,3,female,20,NA,NA,NA
EA_exp_2,8,2,112,54,2,z,2,7052,1725,cr,3,female,20,NA,NA,NA
EA_exp_2,8,2,113,20,2,z,4,1770,461,cr,1,female,20,NA,NA,NA
EA_exp_2,8,2,114,56,2,z,4,1629,451,cr,1,female,20,NA,NA,NA
EA_exp_2,8,2,115,111,1,m,2,1598,748,hit,4,female,20,q,older,1
EA_exp_2,8,2,116,137,1,z,1,1873,639,miss,3,female,20,q,older,1
EA_exp_2,8,2,117,65,2,z,2,1510,404,cr,3,female,20,NA,NA,NA
EA_exp_2,8,2,118,172,1,m,1,1704,1562,hit,4,female,20,q,older,1
EA_exp_2,8,2,119,30,2,z,3,1756,464,cr,2,female,20,NA,NA,NA
EA_exp_2,8,2,120,160,1,m,3,2387,1114,hit,5,female,20,p,younger,1
EA_exp_2,8,2,121,82,2,z,2,1886,1772,cr,3,female,20,NA,NA,NA
EA_exp_2,8,2,122,146,1,m,2,3946,355,hit,4,female,20,q,older,1
EA_exp_2,8,2,123,96,2,z,4,5816,1575,cr,1,female,20,NA,NA,NA
EA_exp_2,8,2,124,161,1,m,2,1976,867,hit,4,female,20,q,older,1
EA_exp_2,8,2,125,48,2,z,3,10626,690,cr,2,female,20,NA,NA,NA
EA_exp_2,8,2,126,100,2,z,3,2328,708,cr,2,female,20,NA,NA,NA
EA_exp_2,8,2,127,49,2,z,3,2087,606,cr,2,female,20,NA,NA,NA
EA_exp_2,8,2,128,103,1,m,4,1559,1219,hit,6,female,20,p,younger,1
EA_exp_2,8,2,129,88,2,z,3,1345,519,cr,2,female,20,NA,NA,NA
EA_exp_2,8,2,130,63,2,z,4,1413,405,cr,1,female,20,NA,NA,NA
EA_exp_2,8,2,131,136,1,m,2,1399,790,hit,4,female,20,q,older,1
EA_exp_2,8,2,132,60,2,z,3,1577,548,cr,2,female,20,NA,NA,NA
EA_exp_2,8,2,133,129,1,z,3,1247,406,miss,2,female,20,q,older,1
EA_exp_2,8,2,134,138,1,z,2,1752,571,miss,3,female,20,p,younger,1
EA_exp_2,8,2,135,43,2,z,2,3300,2236,cr,3,female,20,NA,NA,NA
EA_exp_2,8,2,136,193,1,z,1,2227,658,miss,3,female,20,q,older,1
EA_exp_2,8,2,137,8,2,z,2,1292,479,cr,3,female,20,NA,NA,NA
EA_exp_2,8,2,138,112,1,m,2,1582,504,hit,4,female,20,q,older,1
EA_exp_2,8,2,139,76,2,z,2,1718,667,cr,3,female,20,NA,NA,NA
EA_exp_2,8,2,140,44,2,z,2,1329,468,cr,3,female,20,NA,NA,NA
EA_exp_2,8,2,141,98,2,z,4,2065,491,cr,1,female,20,NA,NA,NA
EA_exp_2,8,2,142,29,2,z,2,1941,2069,cr,3,female,20,NA,NA,NA
EA_exp_2,8,2,143,134,1,z,3,1718,1000,miss,2,female,20,p,younger,1
EA_exp_2,8,2,144,133,1,z,3,1203,490,miss,2,female,20,q,older,1
EA_exp_2,8,2,145,156,1,z,3,2665,422,miss,2,female,20,q,older,1
EA_exp_2,8,2,146,83,2,z,4,1737,443,cr,1,female,20,NA,NA,NA
EA_exp_2,8,2,147,197,1,m,4,1148,631,hit,6,female,20,q,older,1
EA_exp_2,8,2,148,52,2,z,3,1601,2681,cr,2,female,20,NA,NA,NA
EA_exp_2,8,2,149,171,1,z,3,1969,427,miss,2,female,20,q,older,1
EA_exp_2,8,2,150,185,1,m,4,1899,633,hit,6,female,20,p,younger,1
EA_exp_2,8,2,151,9,2,z,2,1314,471,cr,3,female,20,NA,NA,NA
EA_exp_2,8,2,152,6,2,z,4,1844,403,cr,1,female,20,NA,NA,NA
EA_exp_2,8,2,153,53,2,z,2,1543,432,cr,3,female,20,NA,NA,NA
EA_exp_2,8,2,154,90,2,z,3,1458,432,cr,2,female,20,NA,NA,NA
EA_exp_2,8,2,155,119,1,m,2,1409,657,hit,4,female,20,p,younger,1
EA_exp_2,8,2,156,181,1,m,2,2408,417,hit,4,female,20,q,older,1
EA_exp_2,8,2,157,23,2,z,4,1393,419,cr,1,female,20,NA,NA,NA
EA_exp_2,8,2,158,16,2,m,1,3956,1039,fa,4,female,20,NA,NA,NA
EA_exp_2,8,2,159,13,2,z,1,1334,3132,cr,3,female,20,NA,NA,NA
EA_exp_2,8,2,160,75,2,z,2,1425,2895,cr,3,female,20,NA,NA,NA
EA_exp_2,8,2,161,72,2,z,2,2252,445,cr,3,female,20,NA,NA,NA
EA_exp_2,8,2,162,120,1,m,2,2815,582,hit,4,female,20,q,older,1
EA_exp_2,8,2,163,149,1,z,2,1808,1857,miss,3,female,20,q,older,1
EA_exp_2,8,2,164,178,1,m,2,2007,529,hit,4,female,20,q,older,1
EA_exp_2,8,2,165,125,1,m,2,1165,665,hit,4,female,20,p,younger,1
EA_exp_2,8,2,166,187,1,m,2,2577,769,hit,4,female,20,q,older,1
EA_exp_2,8,2,167,46,2,z,4,1454,435,cr,1,female,20,NA,NA,NA
EA_exp_2,8,2,168,31,2,z,2,2594,852,cr,3,female,20,NA,NA,NA
EA_exp_2,8,2,169,77,2,z,2,12470,906,cr,3,female,20,NA,NA,NA
EA_exp_2,8,2,170,32,2,z,2,4201,473,cr,3,female,20,NA,NA,NA
EA_exp_2,8,2,171,24,2,z,2,4841,463,cr,3,female,20,NA,NA,NA
EA_exp_2,8,2,172,47,2,z,2,1072,477,cr,3,female,20,NA,NA,NA
EA_exp_2,8,2,173,198,1,m,4,1342,463,hit,6,female,20,q,older,1
EA_exp_2,8,2,174,173,1,m,4,1599,344,hit,6,female,20,q,older,1
EA_exp_2,8,2,175,147,1,m,4,1101,249,hit,6,female,20,q,older,1
EA_exp_2,8,2,176,191,1,z,2,1346,404,miss,3,female,20,q,older,1
EA_exp_2,8,2,177,182,1,m,4,1377,263,hit,6,female,20,q,older,1
EA_exp_2,8,2,178,141,1,z,2,1150,458,miss,3,female,20,q,older,1
EA_exp_2,8,2,179,25,2,z,1,1113,1126,cr,3,female,20,NA,NA,NA
EA_exp_2,8,2,180,4,2,z,3,1175,517,cr,2,female,20,NA,NA,NA
EA_exp_2,8,2,181,151,1,m,1,1761,420,hit,4,female,20,q,older,1
EA_exp_2,8,2,182,87,2,z,4,1254,380,cr,1,female,20,NA,NA,NA
EA_exp_2,8,2,183,108,1,z,2,1327,403,miss,3,female,20,q,older,1
EA_exp_2,8,2,184,3,2,z,2,1092,401,cr,3,female,20,NA,NA,NA
EA_exp_2,8,2,185,192,1,z,3,1076,1664,miss,2,female,20,q,older,1
EA_exp_2,8,2,186,180,1,z,2,1071,399,miss,3,female,20,q,older,1
EA_exp_2,8,2,187,159,1,m,3,3677,663,hit,5,female,20,q,older,1
EA_exp_2,8,2,188,62,2,z,4,1839,367,cr,1,female,20,NA,NA,NA
EA_exp_2,8,2,189,131,1,m,2,2578,355,hit,4,female,20,q,older,1
EA_exp_2,8,2,190,145,1,z,4,1112,403,miss,1,female,20,q,older,1
EA_exp_2,8,2,191,50,2,z,4,1125,448,cr,1,female,20,NA,NA,NA
EA_exp_2,8,2,192,14,2,z,4,1232,520,cr,1,female,20,NA,NA,NA
EA_exp_2,8,2,193,59,2,z,4,1447,436,cr,1,female,20,NA,NA,NA
EA_exp_2,8,2,194,188,1,m,2,1840,355,hit,4,female,20,q,older,1
EA_exp_2,8,2,195,78,2,z,3,1143,386,cr,2,female,20,NA,NA,NA
EA_exp_2,8,2,196,122,1,m,2,2646,355,hit,4,female,20,p,younger,1
EA_exp_2,8,2,197,150,1,z,2,1782,441,miss,3,female,20,p,younger,1
EA_exp_2,8,2,198,115,1,z,2,4939,429,miss,3,female,20,q,older,1
EA_exp_2,8,2,199,135,1,z,2,1415,446,miss,3,female,20,p,younger,1
EA_exp_2,8,2,200,18,2,z,4,5421,399,cr,1,female,20,NA,NA,NA
EA_exp_2,9,2,1,161,1,m,4,2736,2443,hit,6,female,19,q,older,1
EA_exp_2,9,2,2,98,2,z,3,2074,2225,cr,2,female,19,NA,NA,NA
EA_exp_2,9,2,3,29,2,m,2,2794,1970,fa,4,female,19,NA,NA,NA
EA_exp_2,9,2,4,69,2,z,4,2069,2284,cr,1,female,19,NA,NA,NA
EA_exp_2,9,2,5,76,2,z,3,1924,1183,cr,2,female,19,NA,NA,NA
EA_exp_2,9,2,6,96,2,z,2,2529,1041,cr,3,female,19,NA,NA,NA
EA_exp_2,9,2,7,139,1,m,3,1948,713,hit,5,female,19,p,younger,1
EA_exp_2,9,2,8,8,2,z,3,1327,1859,cr,2,female,19,NA,NA,NA
EA_exp_2,9,2,9,147,1,m,4,1656,545,hit,6,female,19,q,older,1
EA_exp_2,9,2,10,37,2,z,2,2058,2179,cr,3,female,19,NA,NA,NA
EA_exp_2,9,2,11,126,1,m,3,1678,388,hit,5,female,19,q,older,1
EA_exp_2,9,2,12,17,2,z,3,2054,1181,cr,2,female,19,NA,NA,NA
EA_exp_2,9,2,13,89,2,z,4,1632,1416,cr,1,female,19,NA,NA,NA
EA_exp_2,9,2,14,114,1,m,1,2818,1018,hit,4,female,19,q,older,1
EA_exp_2,9,2,15,54,2,z,3,1892,2128,cr,2,female,19,NA,NA,NA
EA_exp_2,9,2,16,71,2,z,2,1620,869,cr,3,female,19,NA,NA,NA
EA_exp_2,9,2,17,43,2,z,3,1091,1360,cr,2,female,19,NA,NA,NA
EA_exp_2,9,2,18,50,2,z,3,1229,820,cr,2,female,19,NA,NA,NA
EA_exp_2,9,2,19,168,1,m,4,1799,247,hit,6,female,19,p,younger,1
EA_exp_2,9,2,20,154,1,z,3,1584,1016,miss,2,female,19,p,younger,1
EA_exp_2,9,2,21,84,2,z,2,2417,506,cr,3,female,19,NA,NA,NA
EA_exp_2,9,2,22,77,2,z,3,1527,1363,cr,2,female,19,NA,NA,NA
EA_exp_2,9,2,23,158,1,m,4,2063,246,hit,6,female,19,q,older,1
EA_exp_2,9,2,24,144,1,m,4,1693,226,hit,6,female,19,p,younger,1
EA_exp_2,9,2,25,78,2,z,4,1933,759,cr,1,female,19,NA,NA,NA
EA_exp_2,9,2,26,93,2,z,4,1898,1560,cr,1,female,19,NA,NA,NA
EA_exp_2,9,2,27,120,1,m,3,2316,392,hit,5,female,19,q,older,1
EA_exp_2,9,2,28,64,2,z,3,2027,834,cr,2,female,19,NA,NA,NA
EA_exp_2,9,2,29,138,1,m,4,1860,223,hit,6,female,19,q,older,1
EA_exp_2,9,2,30,185,1,m,4,2152,221,hit,6,female,19,p,younger,1
EA_exp_2,9,2,31,197,1,m,4,1190,415,hit,6,female,19,q,older,1
EA_exp_2,9,2,32,174,1,m,4,754,236,hit,6,female,19,q,older,1
EA_exp_2,9,2,33,16,2,z,2,2158,695,cr,3,female,19,NA,NA,NA
EA_exp_2,9,2,34,176,1,m,4,1789,239,hit,6,female,19,q,older,1
EA_exp_2,9,2,35,51,2,z,3,1401,472,cr,2,female,19,NA,NA,NA
EA_exp_2,9,2,36,95,2,z,3,967,217,cr,2,female,19,NA,NA,NA
EA_exp_2,9,2,37,145,1,m,4,1955,205,hit,6,female,19,q,older,1
EA_exp_2,9,2,38,162,1,z,2,1880,309,miss,3,female,19,p,younger,1
EA_exp_2,9,2,39,128,1,m,4,973,829,hit,6,female,19,q,older,1
EA_exp_2,9,2,40,86,2,z,3,1440,685,cr,2,female,19,NA,NA,NA
EA_exp_2,9,2,41,52,2,z,3,979,341,cr,2,female,19,NA,NA,NA
EA_exp_2,9,2,42,165,1,z,2,4010,2258,miss,3,female,19,q,older,1
EA_exp_2,9,2,43,81,2,z,3,2075,847,cr,2,female,19,NA,NA,NA
EA_exp_2,9,2,44,102,1,m,4,1263,214,hit,6,female,19,p,younger,1
EA_exp_2,9,2,45,111,1,m,4,990,209,hit,6,female,19,q,older,1
EA_exp_2,9,2,46,127,1,m,4,2329,246,hit,6,female,19,q,older,1
EA_exp_2,9,2,47,141,1,m,4,2205,191,hit,6,female,19,p,younger,1
EA_exp_2,9,2,48,112,1,m,4,1049,280,hit,6,female,19,q,older,1
